t,mx,my,mz,mqx,mqy,mqz,mqw,m_error,ex,ey,ez,eqx,eqy,eqz,eqw,vx,vy,vz,ax,ay,az,sx,sy,sz,p,q,r,m1,m2,m3,m4,vbat,armed,flying,tumbled,locked,crashed,agent_id
31298,-0.08470840752124786,0.04191043972969055,1.0235029458999634,-0.005446992814540863,0.005331255495548248,-0.4516866207122803,-0.8921440839767456,0.000698396353982389,-0.084,0.041,1.023,0.004151311826926893,-0.004151311826926893,0.4511092185260557,0.8924494418066732,-0.002,-0.012,-0.003,-0.125,-0.147,9.846,-0.0882142186164856,0.03350362181663513,0.9999980330467224,0.014,-0.016,0.066,0.6780041199359121,0.8255741206988632,0.7064927138170444,0.817441062027924,3.241,True,True,False,False,False,CF_2
1776181428.7799244,-0.08474774658679962,0.04192670062184334,1.023465871810913,-0.005221642553806305,0.004663687199354172,-0.4522264003753662,-0.891875684261322,0.0006983975181356072,-0.084,0.041,1.023,0.004151311826926893,-0.004151311826926893,0.4511092185260557,0.8924494418066732,-0.002,-0.012,-0.003,-0.125,-0.147,9.846,-0.0882142186164856,0.03350362181663513,0.9999980330467224,0.014,-0.016,0.066,0.6850232700083925,0.8193789578088044,0.701579308766308,0.8185091935606927,3.241,True,True,False,False,False,CF_2
1776181428.7974353,-0.08480275422334671,0.04194933548569679,1.0233988761901855,-0.0052230386063456535,0.004237643908709288,-0.4525793194770813,-0.8916987776756287,0.0007048447732813656,-0.084,0.04,1.023,0.004151311826926893,-0.002767541217951262,0.4524929891350314,0.8917540031361603,-0.002,-0.012,-0.003,-0.125,-0.147,9.846,-0.0882142186164856,0.03350362181663513,0.9999980330467224,0.014,-0.016,0.066,0.6850232700083925,0.8193789578088044,0.701579308766308,0.8185091935606927,3.241,True,True,False,False,False,CF_2
31352,-0.08488693833351135,0.04192272946238518,1.0232586860656738,-0.004511102102696896,0.0022092582657933235,-0.45311498641967773,-0.8914380073547363,0.0006940363091416657,-0.084,0.04,1.023,0.004151311826926893,-0.002767541217951262,0.4524929891350314,0.8917540031361603,-0.003,-0.014,-0.015,0.577,-0.466,10.033,-0.0882142186164856,0.03350362181663513,0.9999980330467224,-0.004,-0.077,0.059,0.6960708018616006,0.8163729304951552,0.6972457465476463,0.8243991760128175,3.241,True,True,False,False,False,CF_2
1776181428.8298454,-0.08494871109724045,0.04191988334059715,1.0232278108596802,-0.004566533956676722,0.001681896043010056,-0.4535987675189972,-0.8911926746368408,0.0006941247265785933,-0.084,0.041,1.022,0.004151311826926893,-0.002767541217951262,0.453876759744007,0.8910505004151019,-0.003,-0.014,-0.015,0.577,-0.466,10.033,-0.0882142186164856,0.03350362181663513,0.9999980330467224,-0.004,-0.077,0.059,0.6960708018616006,0.8163729304951552,0.6972457465476463,0.8243991760128175,3.241,True,True,False,False,False,CF_2
1776181428.8468957,-0.08502933382987976,0.04192859306931496,1.0231672525405884,-0.0047530559822916985,0.001683544018305838,-0.45403310656547546,-0.8909706473350525,0.0006926055648364127,-0.084,0.041,1.022,0.004151311826926893,-0.002767541217951262,0.453876759744007,0.8910505004151019,-0.003,-0.014,-0.015,0.577,-0.466,10.033,-0.0882142186164856,0.03350362181663513,0.9999980330467224,-0.004,-0.077,0.059,0.6960708018616006,0.8163729304951552,0.6972457465476463,0.8243991760128175,3.241,True,True,False,False,False,CF_2
1776181428.8552723,-0.08507566899061203,0.041931748390197754,1.0231369733810425,-0.004672996234148741,0.0015256822807714343,-0.45420658588409424,-0.8908828496932983,0.0006893464014865458,-0.084,0.041,1.022,0.002767541217951262,-0.001383770608975631,0.453876759744007,0.891059096165226,-0.003,-0.014,-0.015,0.577,-0.466,10.033,-0.0882142186164856,0.03350362181663513,0.9999980330467224,-0.004,-0.077,0.059,0.6960708018616006,0.8163729304951552,0.6972457465476463,0.8243991760128175,3.241,True,True,False,False,False,CF_2
31402,-0.08515407145023346,0.04191259294748306,1.0230869054794312,-0.004722012672573328,0.001284212339669466,-0.45463234186172485,-0.8906658887863159,0.0006892216624692082,-0.084,0.041,1.022,0.002767541217951262,-0.001383770608975631,0.453876759744007,0.891059096165226,-0.003,-0.014,-0.01,-0.072,0.15,9.818,-0.0882142186164856,0.03350362181663513,0.9999980330467224,0.018,-0.01,0.058,0.6947280079346914,0.8279240100709544,0.6993057145037003,0.8099641412985428,3.241,True,True,False,False,False,CF_2
1776181428.8886404,-0.08524996042251587,0.04192173108458519,1.023009181022644,-0.00468446034938097,0.0014435446355491877,-0.4548324644565582,-0.8905635476112366,0.0006935870624147356,-0.085,0.041,1.022,0.002767541217951262,-0.001383770608975631,0.45526053035298264,0.8903528937433908,-0.003,-0.014,-0.01,-0.072,0.15,9.818,-0.0882142186164856,0.03350362181663513,0.9999980330467224,0.018,-0.01,0.058,0.6947280079346914,0.8279240100709544,0.6993057145037003,0.8099641412985428,3.241,True,True,False,False,False,CF_2
1776181428.9049459,-0.08534307777881622,0.04190672188997269,1.022929310798645,-0.0044645764864981174,0.0012644241796806455,-0.45510679483413696,-0.890424907207489,0.0006942185573279858,-0.085,0.041,1.022,0.002767541217951262,-0.001383770608975631,0.45526053035298264,0.8903528937433908,-0.003,-0.014,-0.01,-0.072,0.15,9.818,-0.0882142186164856,0.03350362181663513,0.9999980330467224,0.018,-0.01,0.058,0.6947280079346914,0.8279240100709544,0.6993057145037003,0.8099641412985428,3.241,True,True,False,False,False,CF_2
1776181428.921489,-0.0854812040925026,0.04190817102789879,1.0228630304336548,-0.004248559474945068,0.002360326237976551,-0.4557683765888214,-0.8900851607322693,0.000701810116879642,-0.085,0.041,1.022,0.002767541217951262,-0.001383770608975631,0.45526053035298264,0.8903528937433908,-0.003,-0.014,-0.004,-0.278,0.024,9.484,-0.0882142186164856,0.03350362181663513,0.9999980330467224,-0.053,-0.051,0.037,0.6879224841687648,0.8080109864957656,0.701731898985275,0.8280155642023346,3.241,True,True,False,False,False,CF_2
31475,-0.0856066420674324,0.041895195841789246,1.0227634906768799,-0.004395199939608574,0.002061771461740136,-0.45618972182273865,-0.8898693919181824,0.0006999940960668027,-0.085,0.041,1.022,0.002767541217951262,-0.001383770608975631,0.45664430096195824,0.8896439783944323,-0.003,-0.014,-0.004,-0.278,0.024,9.484,-0.0882142186164856,0.03350362181663513,0.9999980330467224,-0.053,-0.051,0.037,0.6879224841687648,0.8080109864957656,0.701731898985275,0.8280155642023346,3.241,True,True,False,False,False,CF_2
1776181428.9551642,-0.08575217425823212,0.041903965175151825,1.0226191282272339,-0.004208983853459358,0.002257587853819132,-0.4562894105911255,-0.8898186087608337,0.000707500905264169,-0.085,0.041,1.022,0.002767541217951262,-0.001383770608975631,0.45664430096195824,0.8896439783944323,-0.003,-0.014,-0.004,-0.278,0.024,9.484,-0.0882142186164856,0.03350362181663513,0.9999980330467224,-0.053,-0.051,0.037,0.6879224841687648,0.8080109864957656,0.701731898985275,0.8280155642023346,3.241,True,True,False,False,False,CF_2
31499,-0.08583703637123108,0.04189945012331009,1.0224822759628296,-0.003076612949371338,0.001179662998765707,-0.45652735233306885,-0.8897032737731934,0.0006980549660511315,-0.085,0.041,1.022,0.002767541217951262,-0.001383770608975631,0.45664430096195824,0.8896439783944323,-0.004,-0.013,-0.016,0.162,-0.569,10.485,-0.0882142186164856,0.03350362181663513,0.9999980330467224,-0.012,-0.017,0.041,0.6884412909132525,0.8317235065232319,0.7097428854810407,0.8085908293278401,3.241,True,True,False,False,False,CF_2
31505,-0.0859765112400055,0.04190266132354736,1.0223151445388794,-0.002855063648894429,0.0008419256191700697,-0.4566512703895569,-0.8896408081054688,0.0006901690503582358,-0.085,0.041,1.022,0.001383770608975631,-0.001383770608975631,0.45664430096195824,0.8896472069066299,-0.004,-0.013,-0.016,0.162,-0.569,10.485,-0.0882142186164856,0.03350362181663513,0.9999980330467224,-0.012,-0.017,0.041,0.6884412909132525,0.8317235065232319,0.7097428854810407,0.8085908293278401,3.241,True,True,False,False,False,CF_2
31535,-0.08611555397510529,0.04196157678961754,1.0222399234771729,-0.0028843218460679054,0.0012794607318937778,-0.45670273900032043,-0.8896138668060303,0.0006895391852594912,-0.085,0.041,1.022,0.001383770608975631,-0.0,0.45664430096195824,0.8896482830747588,-0.004,-0.013,-0.016,0.162,-0.569,10.485,-0.0882142186164856,0.03350362181663513,0.9999980330467224,-0.012,-0.017,0.041,0.6884412909132525,0.8317235065232319,0.7097428854810407,0.8085908293278401,3.241,True,True,False,False,False,CF_2
1776181429.0132897,-0.0862526223063469,0.041992396116256714,1.0221275091171265,-0.0027856521774083376,0.0013527434784919024,-0.45689061284065247,-0.8895174860954285,0.0006978383171372116,-0.085,0.041,1.022,0.001383770608975631,-0.0,0.45664430096195824,0.8896482830747588,-0.004,-0.013,-0.016,0.162,-0.569,10.485,-0.0882142186164856,0.03350362181663513,0.9999980330467224,-0.012,-0.017,0.041,0.6884412909132525,0.8317235065232319,0.7097428854810407,0.8085908293278401,3.241,True,True,False,False,False,CF_2
1776181429.029422,-0.08639967441558838,0.04203338548541069,1.0220444202423096,-0.002969935070723295,0.0016728133196011186,-0.457071453332901,-0.8894234299659729,0.0007015165174379945,-0.086,0.041,1.022,0.0,-0.0,0.4580280715709339,0.8889377287825123,-0.005,-0.013,-0.004,0.059,-0.302,9.964,-0.0882142186164856,0.03350362181663513,0.9999980330467224,-0.036,-0.03,0.031,0.6808117799649043,0.8140993362325475,0.7109941252765698,0.8225070572976272,3.241,True,True,False,False,False,CF_2
1776181429.0460405,-0.08653981983661652,0.04208919405937195,1.0219626426696777,-0.0029854155145585537,0.0020849183201789856,-0.4574265778064728,-0.8892399668693542,0.0007057086913846433,-0.086,0.041,1.022,0.0,-0.0,0.4580280715709339,0.8889377287825123,-0.005,-0.013,-0.004,0.059,-0.302,9.964,-0.0882142186164856,0.03350362181663513,0.9999980330467224,-0.036,-0.03,0.031,0.6808117799649043,0.8140993362325475,0.7109941252765698,0.8225070572976272,3.241,True,True,False,False,False,CF_2
31599,-0.08675332367420197,0.04213028773665428,1.0217370986938477,-0.0023203296586871147,0.0017241038149222732,-0.45768529176712036,-0.8891096711158752,0.0006965208449400961,-0.086,0.041,1.021,0.0,-0.001383770608975631,0.4580280715709339,0.8889366517541692,-0.006,-0.011,-0.003,-0.151,0.078,9.603,-0.0882142186164856,0.03350362181663513,0.9999980330467224,-0.011,0.007,0.051,0.6915693904020752,0.8162050812542916,0.7022964827954528,0.8158388647287709,3.241,True,True,False,False,False,CF_2
1776181429.070988,-0.08684517443180084,0.042198579758405685,1.0217318534851074,-0.00192743178922683,0.0013415762223303318,-0.4578995108604431,-0.8890008926391602,0.0007029457483440638,-0.086,0.041,1.021,0.0,-0.001383770608975631,0.4580280715709339,0.8889366517541692,-0.006,-0.011,-0.003,-0.151,0.078,9.603,-0.0882142186164856,0.03350362181663513,0.9999980330467224,-0.011,0.007,0.051,0.6915693904020752,0.8162050812542916,0.7022964827954528,0.8158388647287709,3.241,True,True,False,False,False,CF_2
31625,-0.08704949915409088,0.04230722412467003,1.0215904712677002,-0.0019177687354385853,0.002030491130426526,-0.45863088965415955,-0.888622522354126,0.0007058834889903665,-0.086,0.041,1.021,0.0,-0.001383770608975631,0.4580280715709339,0.8889366517541692,-0.006,-0.011,-0.003,-0.151,0.078,9.603,-0.0882142186164856,0.03350362181663513,0.9999980330467224,-0.011,0.007,0.051,0.6915693904020752,0.8162050812542916,0.7022964827954528,0.8158388647287709,3.241,True,True,False,False,False,CF_2
1776181429.1048863,-0.08727870136499405,0.042492929846048355,1.0214415788650513,-0.0012911631492897868,0.0017947446322068572,-0.4591192603111267,-0.8883719444274902,0.0007018043543212116,-0.086,0.041,1.021,0.0,-0.001383770608975631,0.4580280715709339,0.8889366517541692,-0.006,-0.011,-0.003,-0.151,0.078,9.603,-0.0882142186164856,0.03350362181663513,0.9999980330467224,-0.011,0.007,0.051,0.6915693904020752,0.8162050812542916,0.7022964827954528,0.8158388647287709,3.241,True,True,False,False,False,CF_2
31655,-0.08751223236322403,0.04263430833816528,1.0212517976760864,-0.0016700883861631155,0.001851589884608984,-0.45952337980270386,-0.8881621956825256,0.0007033530273474753,-0.086,0.041,1.021,0.0,-0.001383770608975631,0.4594118421799095,0.8882222944982656,-0.007,-0.01,-0.009,-0.15,-0.673,10.317,-0.0882142186164856,0.03350362181663513,0.9999980330467224,0.061,-0.009,0.051,0.6926527809567407,0.8230258640421149,0.7081101701380942,0.8111848630502785,3.241,True,True,False,False,False,CF_2
1776181429.138293,-0.08772683143615723,0.04278694838285446,1.0211024284362793,-0.0019005987560376525,0.0016506197862327099,-0.4596630036830902,-0.8880898952484131,0.0007025200175121427,-0.086,0.041,1.021,0.0,-0.001383770608975631,0.4594118421799095,0.8882222944982656,-0.007,-0.01,-0.009,-0.15,-0.673,10.317,-0.0882142186164856,0.03350362181663513,0.9999980330467224,0.061,-0.009,0.051,0.6926527809567407,0.8230258640421149,0.7081101701380942,0.8111848630502785,3.241,True,True,False,False,False,CF_2
1776181429.1550505,-0.08793290704488754,0.042950235307216644,1.020951509475708,-0.0018389786127954721,0.0021074097603559494,-0.45994898676872253,-0.8879410028457642,0.0006959981983527541,-0.087,0.041,1.021,0.0,-0.0,0.4594118421799095,0.8882233723928131,-0.007,-0.01,-0.009,-0.15,-0.673,10.317,-0.0882142186164856,0.03350362181663513,0.9999980330467224,0.061,-0.009,0.051,0.6926527809567407,0.8230258640421149,0.7081101701380942,0.8111848630502785,3.241,True,True,False,False,False,CF_2
31698,-0.08806455135345459,0.043063316494226456,1.0208483934402466,-0.0016466614324599504,0.002470071194693446,-0.4600578248500824,-0.8878839612007141,0.0006985493237152696,-0.087,0.041,1.021,0.0,-0.0,0.4594118421799095,0.8882233723928131,-0.008,-0.007,-0.004,-0.011,0.067,9.753,-0.0882142186164856,0.03350362181663513,0.9999980330467224,-0.02,0.039,0.042,0.6926527809567407,0.8230258640421149,0.7081101701380942,0.8111848630502785,3.241,True,True,False,False,False,CF_2
31715,-0.08832205832004547,0.04327074810862541,1.0206632614135742,-0.0018426470924168825,0.002544473158195615,-0.46059370040893555,-0.887605607509613,0.0006938266451470554,-0.087,0.042,1.021,0.0,-0.001383770608975631,0.46079561278888514,0.8875052047246921,-0.008,-0.007,-0.004,-0.011,0.067,9.753,-0.0882142186164856,0.03350362181663513,0.9999980330467224,-0.02,0.039,0.042,0.6819409475852598,0.8258182650492103,0.7152666514076448,0.806286717021439,3.235,True,True,False,False,False,CF_2
1776181429.1964018,-0.08855574578046799,0.043501436710357666,1.0205127000808716,-0.0019070140551775694,0.0031967165414243937,-0.46089717745780945,-0.8874458074569702,0.0006999358884058893,-0.087,0.042,1.021,0.0,-0.001383770608975631,0.46079561278888514,0.8875052047246921,-0.008,-0.007,-0.004,-0.011,0.067,9.753,-0.0882142186164856,0.03350362181663513,0.9999980330467224,-0.02,0.039,0.042,0.6819409475852598,0.8258182650492103,0.7152666514076448,0.806286717021439,3.235,True,True,False,False,False,CF_2
31749,-0.08881130069494247,0.04373021051287651,1.020327091217041,-0.0025350134819746017,0.002898641861975193,-0.46106216311454773,-0.8873595595359802,0.000693235662765801,-0.088,0.042,1.02,0.0,-0.001383770608975631,0.46079561278888514,0.8875052047246921,-0.011,-0.003,-0.003,-0.026,-0.009,9.782,-0.0882142186164856,0.03350362181663513,0.9999980330467224,0.046,0.009,0.038,0.6975814450293736,0.8139467460135805,0.7023422598611428,0.8187685969329366,3.235,True,True,False,False,False,CF_2
1776181429.229259,-0.08905627578496933,0.04397984594106674,1.0201979875564575,-0.002842619316652417,0.002761267591267824,-0.4613047242164612,-0.8872329592704773,0.0007104148389771581,-0.088,0.042,1.02,0.0,-0.001383770608975631,0.46079561278888514,0.8875052047246921,-0.011,-0.003,-0.003,-0.026,-0.009,9.782,-0.0882142186164856,0.03350362181663513,0.9999980330467224,0.046,0.009,0.038,0.6975814450293736,0.8139467460135805,0.7023422598611428,0.8187685969329366,3.235,True,True,False,False,False,CF_2
1776181429.245589,-0.08933238685131073,0.04427502676844597,1.0200438499450684,-0.0033399530220776796,0.0033405933063477278,-0.4616914689540863,-0.8870280385017395,0.0007057409966364503,-0.088,0.043,1.02,0.001383770608975631,-0.001383770608975631,0.46079561278888514,0.8875041259579132,-0.011,-0.003,-0.003,-0.026,-0.009,9.782,-0.0882142186164856,0.03350362181663513,0.9999980330467224,0.046,0.009,0.038,0.6975814450293736,0.8139467460135805,0.7023422598611428,0.8187685969329366,3.235,True,True,False,False,False,CF_2
31798,-0.08946261554956436,0.044404663145542145,1.0199748277664185,-0.0037206492852419615,0.0036483441945165396,-0.4617743194103241,-0.8869822025299072,0.0007078289636410773,-0.088,0.043,1.02,0.001383770608975631,-0.001383770608975631,0.46079561278888514,0.8875041259579132,-0.013,-0.002,-0.005,-0.03,-0.052,9.742,-0.0882142186164856,0.03350362181663513,0.9999980330467224,0.05,0.025,0.039,0.6975814450293736,0.8139467460135805,0.7023422598611428,0.8187685969329366,3.235,True,True,False,False,False,CF_2
31805,-0.0897446796298027,0.04468353092670441,1.0197631120681763,-0.003865817328915,0.003430189099162817,-0.46218374371528625,-0.8867691159248352,0.0007048820261843503,-0.089,0.043,1.02,0.002767541217951262,-0.001383770608975631,0.46217938339786074,0.8867810572269132,-0.013,-0.002,-0.005,-0.03,-0.052,9.742,-0.0882142186164856,0.03350362181663513,0.9999980330467224,0.05,0.025,0.039,0.6862897688258183,0.8166170748455024,0.71621271076524,0.8153963530937667,3.235,True,True,False,False,False,CF_2
1776181429.2886994,-0.09001824259757996,0.044971488416194916,1.019639492034912,-0.0040204282850027084,0.0027248295955359936,-0.46243196725845337,-0.8866414427757263,0.0007167797884903848,-0.089,0.043,1.02,0.002767541217951262,-0.001383770608975631,0.46217938339786074,0.8867810572269132,-0.013,-0.002,-0.005,-0.03,-0.052,9.742,-0.0882142186164856,0.03350362181663513,0.9999980330467224,0.05,0.025,0.039,0.6862897688258183,0.8166170748455024,0.71621271076524,0.8153963530937667,3.235,True,True,False,False,False,CF_2
1776181429.3055289,-0.09021349251270294,0.04533451795578003,1.0197144746780396,-0.0018487951019778848,0.0019417321309447289,-0.4633796811103821,-0.8861558437347412,0.0006137371528893709,-0.089,0.043,1.019,0.002767541217951262,-0.001383770608975631,0.46217938339786074,0.8867810572269132,-0.013,-0.002,-0.005,-0.03,-0.052,9.742,-0.0882142186164856,0.03350362181663513,0.9999980330467224,0.05,0.025,0.039,0.6862897688258183,0.8166170748455024,0.71621271076524,0.8153963530937667,3.235,True,True,False,False,False,CF_2
1776181429.3216558,-0.09055574983358383,0.04560020938515663,1.0194053649902344,-0.0038994350470602512,0.0010283996816724539,-0.46279942989349365,-0.8864539265632629,0.000715354923158884,-0.089,0.043,1.019,0.002767541217951262,-0.001383770608975631,0.46217938339786074,0.8867810572269132,-0.014,0.0,-0.004,0.09,-0.036,9.724,-0.0882142186164856,0.03350362181663513,0.9999980330467224,0.039,-0.077,0.018,0.6986495765621423,0.8067597467002365,0.7024490730144197,0.8262455176623178,3.235,True,True,False,False,False,CF_2
1776181429.3306494,-0.09070911258459091,0.04577740654349327,1.0192618370056152,-0.004354835953563452,0.0008070674957707524,-0.4627096652984619,-0.886498749256134,0.0007118582143448293,-0.09,0.044,1.019,0.002767541217951262,-0.0,0.46217938339786074,0.8867821368733023,-0.014,0.0,-0.004,0.09,-0.036,9.724,-0.0882142186164856,0.03350362181663513,0.9999980330467224,0.039,-0.077,0.018,0.6986495765621423,0.8067597467002365,0.7024490730144197,0.8262455176623178,3.235,True,True,False,False,False,CF_2
1776181429.3466387,-0.09100158512592316,0.046063382178545,1.0190458297729492,-0.003671373939141631,9.925070480676368e-05,-0.4629145562648773,-0.886395275592804,0.0006990778492763638,-0.09,0.044,1.019,0.002767541217951262,-0.0,0.46217938339786074,0.8867821368733023,-0.014,0.0,-0.004,0.09,-0.036,9.724,-0.0882142186164856,0.03350362181663513,0.9999980330467224,0.039,-0.077,0.018,0.6986495765621423,0.8067597467002365,0.7024490730144197,0.8262455176623178,3.235,True,True,False,False,False,CF_2
31899,-0.0912608653306961,0.04636843875050545,1.0188639163970947,-0.003790981601923704,-4.87290344608482e-05,-0.4633437395095825,-0.8861705660820007,0.000703683472238481,-0.09,0.045,1.019,0.002767541217951262,0.0,0.4635631540068364,0.8860595594895644,-0.013,0.0,-0.004,0.061,0.056,9.771,-0.0882142186164856,0.03350362181663513,0.9999980330467224,0.029,0.038,0.039,0.6927748531319142,0.8111238269626917,0.712443732356756,0.8198672465094987,3.235,True,True,False,False,False,CF_2
1776181429.3801658,-0.09150301665067673,0.04669295251369476,1.0186790227890015,-0.003871881403028965,-0.0006573720020242035,-0.4636753499507904,-0.8859965205192566,0.000699738331604749,-0.09,0.045,1.019,0.002767541217951262,0.0,0.4635631540068364,0.8860595594895644,-0.013,0.0,-0.004,0.061,0.056,9.771,-0.0882142186164856,0.03350362181663513,0.9999980330467224,0.029,0.038,0.039,0.6927748531319142,0.8111238269626917,0.712443732356756,0.8198672465094987,3.235,True,True,False,False,False,CF_2
1776181429.3986783,-0.09175858646631241,0.047021813690662384,1.0184727907180786,-0.004522623494267464,0.00010436734737595543,-0.4637396037578583,-0.8859599232673645,0.0006985499057918787,-0.091,0.045,1.018,0.002767541217951262,0.0,0.4635631540068364,0.8860595594895644,-0.013,0.0,-0.004,0.061,0.056,9.771,-0.0882142186164856,0.03350362181663513,0.9999980330467224,0.029,0.038,0.039,0.6927748531319142,0.8111238269626917,0.712443732356756,0.8198672465094987,3.235,True,True,False,False,False,CF_2
31948,-0.09203024953603745,0.04735390469431877,1.018251657485962,-0.004953988827764988,0.0006853581289760768,-0.4640756845474243,-0.885781466960907,0.0006782670388929546,-0.091,0.045,1.018,0.002767541217951262,0.0,0.4635631540068364,0.8860595594895644,-0.013,0.003,-0.009,0.015,-0.068,9.75,-0.0882142186164856,0.03350362181663513,0.9999980330467224,0.01,0.03,0.046,0.6927748531319142,0.8111238269626917,0.712443732356756,0.8198672465094987,3.235,True,True,False,False,False,CF_2
1776181429.4299335,-0.09225364774465561,0.04767078161239624,1.0180975198745728,-0.0051267254166305065,0.0008229491068050265,-0.46465978026390076,-0.8854740858078003,0.0006811743951402605,-0.091,0.045,1.018,0.002767541217951262,0.0,0.4635631540068364,0.8860595594895644,-0.013,0.003,-0.009,0.015,-0.068,9.75,-0.0882142186164856,0.03350362181663513,0.9999980330467224,0.01,0.03,0.046,0.6856641489280537,0.8097352559700923,0.7243457694361791,0.821911955443656,3.235,True,True,False,False,False,CF_2
1776181429.4384978,-0.09235123544931412,0.04784959927201271,1.018020510673523,-0.005112810991704464,0.0010749808279797435,-0.4648109972476959,-0.8853946328163147,0.0006844621966592968,-0.091,0.046,1.018,0.004151311826926893,-0.0,0.4635631540068364,0.8860541568422043,-0.013,0.003,-0.009,0.015,-0.068,9.75,-0.0882142186164856,0.03350362181663513,0.9999980330467224,0.01,0.03,0.046,0.6856641489280537,0.8097352559700923,0.7243457694361791,0.821911955443656,3.235,True,True,False,False,False,CF_2
1776181429.4557724,-0.09258030354976654,0.04818948358297348,1.017835259437561,-0.005259494297206402,0.001454380457289517,-0.46517106890678406,-0.885204017162323,0.0006850826321169734,-0.092,0.046,1.018,0.004151311826926893,-0.0,0.464946924615812,0.885328822472427,-0.013,0.003,-0.009,0.015,-0.068,9.75,-0.0882142186164856,0.03350362181663513,0.9999980330467224,0.01,0.03,0.046,0.6856641489280537,0.8097352559700923,0.7243457694361791,0.821911955443656,3.235,True,True,False,False,False,CF_2
1776181429.4715648,-0.09279432147741318,0.04852106422185898,1.0176552534103394,-0.006121061276644468,0.001299536321312189,-0.4654119610786438,-0.8850720524787903,0.0007007270469330251,-0.092,0.046,1.018,0.004151311826926893,-0.0,0.464946924615812,0.885328822472427,-0.011,0.003,-0.013,0.03,0.004,9.768,-0.0882142186164856,0.03350362181663513,0.9999980330467224,0.048,0.028,0.053,0.7132524605172809,0.8247501335164416,0.7034256504158084,0.8070191500724804,3.235,True,True,False,False,False,CF_2
1776181429.4879954,-0.09300066530704498,0.04884953424334526,1.0173765420913696,-0.006647965870797634,0.0016389972297474742,-0.465781569480896,-0.8848732709884644,0.0006898100837133825,-0.092,0.047,1.017,0.004151311826926893,-0.0,0.464946924615812,0.885328822472427,-0.011,0.003,-0.013,0.03,0.004,9.768,-0.0882142186164856,0.03350362181663513,0.9999980330467224,0.048,0.028,0.053,0.7132524605172809,0.8247501335164416,0.7034256504158084,0.8070191500724804,3.235,True,True,False,False,False,CF_2
1776181429.5048933,-0.09316766262054443,0.04919867217540741,1.0172104835510254,-0.006587852258235216,0.00012322215479798615,-0.46604663133621216,-0.884735643863678,0.0006873959209769964,-0.092,0.047,1.017,0.004151311826926893,-0.0,0.464946924615812,0.885328822472427,-0.011,0.003,-0.013,0.03,0.004,9.768,-0.0882142186164856,0.03350362181663513,0.9999980330467224,0.048,0.028,0.053,0.7132524605172809,0.8247501335164416,0.7034256504158084,0.8070191500724804,3.235,True,True,False,False,False,CF_2
32049,-0.09329938143491745,0.049488335847854614,1.0170594453811646,-0.005847371183335781,-0.00015485512267332524,-0.46648409962654114,-0.8845102190971375,0.0006990467663854361,-0.092,0.048,1.017,0.005535082435902524,-0.0,0.4663306952247877,0.8845931525586177,-0.01,0.001,-0.016,0.57,-0.354,9.833,-0.0882142186164856,0.03350362181663513,0.9999980330467224,0.008,-0.018,0.041,0.7012741283283741,0.8156252384222171,0.7172350652323186,0.8180209048599985,3.235,True,True,False,False,False,CF_2
32075,-0.09348198771476746,0.04982362315058708,1.0168062448501587,-0.006658966653048992,-4.780627932632342e-05,-0.46657347679138184,-0.8844573497772217,0.0007070855936035514,-0.093,0.048,1.016,0.005535082435902524,-0.0,0.4663306952247877,0.8845931525586177,-0.01,0.001,-0.016,0.57,-0.354,9.833,-0.0882142186164856,0.03350362181663513,0.9999980330467224,0.008,-0.018,0.041,0.7012741283283741,0.8156252384222171,0.7172350652323186,0.8180209048599985,3.235,True,True,False,False,False,CF_2
1776181429.5550125,-0.09366218745708466,0.05015411600470543,1.0165698528289795,-0.006621342618018389,0.00012402904394548386,-0.46685439348220825,-0.8843094706535339,0.0007051688153296709,-0.093,0.048,1.016,0.005535082435902524,-0.0,0.4663306952247877,0.8845931525586177,-0.01,0.001,-0.016,0.57,-0.354,9.833,-0.0882142186164856,0.03350362181663513,0.9999980330467224,0.008,-0.018,0.041,0.7012741283283741,0.8156252384222171,0.7172350652323186,0.8180209048599985,3.235,True,True,False,False,False,CF_2
32102,-0.09374403208494186,0.050318632274866104,1.0164318084716797,-0.006395024247467518,-0.0001356551074422896,-0.4670625627040863,-0.884201169013977,0.0007052579894661903,-0.093,0.048,1.016,0.005535082435902524,-0.0,0.4663306952247877,0.8845931525586177,-0.008,0.001,-0.021,0.182,0.021,9.61,-0.0882142186164856,0.03350362181663513,0.9999980330467224,-0.001,-0.006,0.047,0.6996414129854276,0.8119783321889067,0.7240558480201419,0.8221408407721065,3.235,True,True,False,False,False,CF_2
1776181429.5795395,-0.0938536673784256,0.050608646124601364,1.016229271888733,-0.006012631580233574,-0.0008970123599283397,-0.46756064891815186,-0.8839401602745056,0.0007017174502834678,-0.093,0.049,1.016,0.005535082435902524,0.0,0.46771446583376325,0.8838622863954911,-0.008,0.001,-0.021,0.182,0.021,9.61,-0.0882142186164856,0.03350362181663513,0.9999980330467224,-0.001,-0.006,0.047,0.6996414129854276,0.8119783321889067,0.7240558480201419,0.8221408407721065,3.235,True,True,False,False,False,CF_2
32135,-0.09393233060836792,0.050886835902929306,1.0160434246063232,-0.006179532036185265,-0.0006196172325871885,-0.4678996801376343,-0.8837597966194153,0.0007014257134869695,-0.093,0.049,1.015,0.005535082435902524,0.0,0.46771446583376325,0.8838622863954911,-0.008,0.001,-0.021,0.182,0.021,9.61,-0.0882142186164856,0.03350362181663513,0.9999980330467224,-0.001,-0.006,0.047,0.6996414129854276,0.8119783321889067,0.7240558480201419,0.8221408407721065,3.235,True,True,False,False,False,CF_2
32149,-0.09401416778564453,0.051148440688848495,1.015854835510254,-0.0069091226905584335,-0.00016861275071278214,-0.46802374720573425,-0.8836888670921326,0.0006930434610694647,-0.093,0.049,1.015,0.005535082435902524,0.0,0.46771446583376325,0.8838622863954911,-0.005,0.0,-0.011,0.189,-0.165,10.041,-0.0882142186164856,0.03350362181663513,0.9999980330467224,0.045,0.052,0.027,0.6958876935988403,0.8183871213855192,0.7236591134508278,0.8154726482032502,3.235,True,True,False,False,False,CF_2
32165,-0.09412574768066406,0.05143198370933533,1.0156536102294922,-0.00787317007780075,3.9845614082878456e-05,-0.46834081411361694,-0.8835128545761108,0.0006946635548956692,-0.093,0.05,1.015,0.005535082435902524,0.0,0.46771446583376325,0.8838622863954911,-0.005,0.0,-0.011,0.189,-0.165,10.041,-0.0882142186164856,0.03350362181663513,0.9999980330467224,0.045,0.052,0.027,0.6958876935988403,0.8183871213855192,0.7236591134508278,0.8154726482032502,3.235,True,True,False,False,False,CF_2
1776181429.6468937,-0.09420868009328842,0.05175458639860153,1.0154905319213867,-0.008288148790597916,0.0014432796742767096,-0.4686460793018341,-0.883345901966095,0.0006866726907901466,-0.093,0.05,1.015,0.005535082435902524,0.0,0.46771446583376325,0.8838622863954911,-0.005,0.0,-0.011,0.189,-0.165,10.041,-0.0882142186164856,0.03350362181663513,0.9999980330467224,0.045,0.052,0.027,0.6958876935988403,0.8183871213855192,0.7236591134508278,0.8154726482032502,3.235,True,True,False,False,False,CF_2
32199,-0.09425088763237,0.052034422755241394,1.015358567237854,-0.007752132136374712,0.0015449337661266327,-0.46897271275520325,-0.8831773996353149,0.0006853231461718678,-0.094,0.05,1.015,0.006918853044878155,-0.0,0.46909823644273896,0.883118890092866,-0.002,-0.001,0.002,-0.893,0.034,9.567,-0.0882142186164856,0.03350362181663513,0.9999980330467224,-0.016,0.028,0.026,0.692683299000534,0.807537956816968,0.7227130540932326,0.8211642633707179,3.235,True,True,False,False,False,CF_2
1776181429.6797254,-0.09429118782281876,0.05226941779255867,1.0152215957641602,-0.007697554770857096,0.0017926334403455257,-0.46903157234191895,-0.8831459879875183,0.0006806354504078627,-0.094,0.05,1.015,0.006918853044878155,-0.0,0.46909823644273896,0.883118890092866,-0.002,-0.001,0.002,-0.893,0.034,9.567,-0.0882142186164856,0.03350362181663513,0.9999980330467224,-0.016,0.028,0.026,0.692683299000534,0.807537956816968,0.7227130540932326,0.8211642633707179,3.225,True,True,False,False,False,CF_2
1776181429.6887178,-0.09429275989532471,0.05237901210784912,1.0151597261428833,-0.007728906814008951,0.0015863978769630194,-0.46912890672683716,-0.8830944895744324,0.0006852694787085056,-0.094,0.051,1.015,0.006918853044878155,-0.0,0.46909823644273896,0.883118890092866,-0.002,-0.001,0.002,-0.893,0.034,9.567,-0.0882142186164856,0.03350362181663513,0.9999980330467224,-0.016,0.028,0.026,0.692683299000534,0.807537956816968,0.7227130540932326,0.8211642633707179,3.225,True,True,False,False,False,CF_2
1776181429.7055006,-0.09428594261407852,0.052572887390851974,1.0150349140167236,-0.007747712545096874,0.0014810329303145409,-0.46934938430786133,-0.8829773664474487,0.0006924666231498122,-0.094,0.051,1.015,0.006918853044878155,-0.0,0.46909823644273896,0.883118890092866,-0.002,-0.001,0.002,-0.893,0.034,9.567,-0.0882142186164856,0.03350362181663513,0.9999980330467224,-0.016,0.028,0.026,0.692683299000534,0.807537956816968,0.7227130540932326,0.8211642633707179,3.225,True,True,False,False,False,CF_2
32255,-0.0942729040980339,0.05277314782142639,1.0149165391921997,-0.007791535928845406,0.001712311408482492,-0.4693797826766968,-0.8829603791236877,0.0006897851708345115,-0.094,0.051,1.015,0.006918853044878155,-0.001383770608975631,0.46909823644273896,0.8831178059680131,0.0,-0.005,-0.012,0.36,-0.022,9.931,-0.0882142186164856,0.03350362181663513,0.9999980330467224,-0.002,0.004,0.011,0.706813153276875,0.8192111085679408,0.7143816281376364,0.8153658350499733,3.225,True,True,False,False,False,CF_2
1776181429.7384179,-0.09424660354852676,0.0529542975127697,1.0148041248321533,-0.008031656965613365,0.0019943788647651672,-0.4693031907081604,-0.8829983472824097,0.0006926935748197138,-0.094,0.051,1.015,0.006918853044878155,-0.001383770608975631,0.46909823644273896,0.8831178059680131,0.0,-0.005,-0.012,0.36,-0.022,9.931,-0.0882142186164856,0.03350362181663513,0.9999980330467224,-0.002,0.004,0.011,0.706813153276875,0.8192111085679408,0.7143816281376364,0.8153658350499733,3.225,True,True,False,False,False,CF_2
1776181429.7545586,-0.09423866868019104,0.05314116179943085,1.01468825340271,-0.00824015960097313,0.0020735147409141064,-0.46936383843421936,-0.882964015007019,0.0006944634951651096,-0.094,0.052,1.014,0.006918853044878155,-0.001383770608975631,0.46909823644273896,0.8831178059680131,0.0,-0.005,-0.012,0.36,-0.022,9.931,-0.0882142186164856,0.03350362181663513,0.9999980330467224,-0.002,0.004,0.011,0.706813153276875,0.8192111085679408,0.7143816281376364,0.8153658350499733,3.225,True,True,False,False,False,CF_2
32298,-0.09422216564416885,0.05322348326444626,1.0146247148513794,-0.008098161779344082,0.0018550404347479343,-0.4694102704524994,-0.8829411268234253,0.0006942081963643432,-0.094,0.052,1.014,0.006918853044878155,-0.001383770608975631,0.46909823644273896,0.8831178059680131,0.001,-0.005,-0.014,0.049,-0.192,9.554,-0.0882142186164856,0.03350362181663513,0.9999980330467224,-0.013,-0.005,0.017,0.706813153276875,0.8192111085679408,0.7143816281376364,0.8153658350499733,3.225,True,True,False,False,False,CF_2
32315,-0.09416906535625458,0.0533842109143734,1.0145536661148071,-0.008168667554855347,0.0013827389338985085,-0.4695204496383667,-0.8828827142715454,0.0006997997988946736,-0.094,0.052,1.014,0.006918853044878155,-0.001383770608975631,0.46909823644273896,0.8831178059680131,0.001,-0.005,-0.014,0.049,-0.192,9.554,-0.0882142186164856,0.03350362181663513,0.9999980330467224,-0.013,-0.005,0.017,0.7002670328831921,0.8133821622034028,0.7231708247501335,0.8211337453269245,3.225,True,True,False,False,False,CF_2
1776181429.7977273,-0.09412361681461334,0.05350637435913086,1.014421820640564,-0.008723604492843151,0.0018561502220109105,-0.4696968197822571,-0.8827827572822571,0.0007034114096313715,-0.094,0.052,1.014,0.006918853044878155,-0.001383770608975631,0.46909823644273896,0.8831178059680131,0.001,-0.005,-0.014,0.049,-0.192,9.554,-0.0882142186164856,0.03350362181663513,0.9999980330467224,-0.013,-0.005,0.017,0.7002670328831921,0.8133821622034028,0.7231708247501335,0.8211337453269245,3.225,True,True,False,False,False,CF_2
32349,-0.09408638626337051,0.0536285899579525,1.0143136978149414,-0.008380726911127567,0.0019754671957343817,-0.4698737859725952,-0.8826916217803955,0.0006924470071680844,-0.094,0.052,1.014,0.006918853044878155,-0.001383770608975631,0.46909823644273896,0.8831178059680131,0.003,-0.007,-0.022,0.681,-0.254,10.143,-0.0882142186164856,0.03350362181663513,0.9999980330467224,-0.004,-0.007,0.014,0.7009384298466468,0.8086518654154269,0.729427023727779,0.8310063324940872,3.225,True,True,False,False,False,CF_2
1776181429.8296137,-0.09400627017021179,0.053725436329841614,1.0142565965652466,-0.008125669322907925,0.001963143702596426,-0.4700940251350403,-0.8825768232345581,0.0006929825758561492,-0.094,0.052,1.014,0.006918853044878155,-0.001383770608975631,0.46909823644273896,0.8831178059680131,0.003,-0.007,-0.022,0.681,-0.254,10.143,-0.088214211165905,0.03350361809134483,0.9999979734420776,-0.004,-0.007,0.014,0.7009384298466468,0.8086518654154269,0.729427023727779,0.8310063324940872,3.225,True,True,False,False,False,CF_2
1776181429.8463094,-0.0939558669924736,0.05380340665578842,1.0141762495040894,-0.007945205084979534,0.0018746305722743273,-0.47001883387565613,-0.8826186656951904,0.0006916812271811068,-0.094,0.052,1.013,0.006918853044878155,-0.001383770608975631,0.47048200705171456,0.8823813776888287,0.003,-0.007,-0.022,0.681,-0.254,10.143,-0.088214211165905,0.03350361809134483,0.9999979734420776,-0.004,-0.007,0.014,0.7009384298466468,0.8086518654154269,0.729427023727779,0.8310063324940872,3.225,True,True,False,False,False,CF_2
1776181429.8625336,-0.09389711916446686,0.05388772860169411,1.0141528844833374,-0.007523561827838421,0.00214884034357965,-0.47009381651878357,-0.8825817108154297,0.0006890493095852435,-0.094,0.052,1.013,0.006918853044878155,-0.001383770608975631,0.47048200705171456,0.8823813776888287,0.006,-0.012,0.005,-0.691,-0.287,9.875,-0.088214211165905,0.03350361809134483,0.9999979734420776,-0.056,0.017,0.012,0.7009384298466468,0.8086518654154269,0.729427023727779,0.8310063324940872,3.225,True,True,False,False,False,CF_2
32405,-0.09386704862117767,0.05392201617360115,1.0141396522521973,-0.0073246159590780735,0.0021125401835888624,-0.470183789730072,-0.8825355768203735,0.0006851517246104777,-0.093,0.053,1.014,0.006918853044878155,-0.001383770608975631,0.47048200705171456,0.8823813776888287,0.006,-0.012,0.005,-0.691,-0.287,9.875,-0.0882105752825737,0.033502236008644104,0.9999691247940063,-0.056,0.017,0.012,0.6927443350881208,0.80854505226215,0.7258869306477455,0.8226443884946975,3.225,True,True,False,False,False,CF_2
1776181429.8878026,-0.09379283338785172,0.05397741124033928,1.0141310691833496,-0.0071703908033668995,0.002557111205533147,-0.4702623188495636,-0.8824938535690308,0.0006862523732706904,-0.093,0.053,1.014,0.006918853044878155,-0.001383770608975631,0.47048200705171456,0.8823813776888287,0.006,-0.012,0.005,-0.691,-0.287,9.875,-0.0882105752825737,0.033502236008644104,0.9999691247940063,-0.056,0.017,0.012,0.6927443350881208,0.80854505226215,0.7258869306477455,0.8226443884946975,3.225,True,True,False,False,False,CF_2
1776181429.905826,-0.09373470395803452,0.054024357348680496,1.0141035318374634,-0.006858345586806536,0.0032045135740190744,-0.4702041447162628,-0.8825252652168274,0.0006818094407208264,-0.093,0.053,1.014,0.005535082435902524,-0.001383770608975631,0.47048200705171456,0.882391142907679,0.006,-0.012,0.005,-0.691,-0.287,9.875,-0.0882105752825737,0.033502236008644104,0.9999691247940063,-0.056,0.017,0.012,0.6927443350881208,0.80854505226215,0.7258869306477455,0.8226443884946975,3.225,True,True,False,False,False,CF_2
1776181429.921827,-0.09365513920783997,0.05407356843352318,1.0141232013702393,-0.006489424500614405,0.003504805965349078,-0.4705026149749756,-0.8823678493499756,0.0006819331902079284,-0.093,0.053,1.014,0.005535082435902524,-0.001383770608975631,0.47048200705171456,0.882391142907679,0.007,-0.015,0.003,0.092,-0.041,9.806,-0.0882105752825737,0.033502236008644104,0.9999691247940063,-0.009,0.009,0.007,0.6996566720073243,0.8112916762035554,0.7174639505607691,0.8183108262760357,3.225,True,True,False,False,False,CF_2
1776181429.938346,-0.09358319640159607,0.05407389998435974,1.014121651649475,-0.006415367592126131,0.0033600942697376013,-0.4706094563007355,-0.8823118805885315,0.0006848127231933177,-0.093,0.053,1.014,0.005535082435902524,-0.001383770608975631,0.47048200705171456,0.882391142907679,0.007,-0.015,0.003,0.092,-0.041,9.806,-0.0882105752825737,0.033502236008644104,0.9999691247940063,-0.009,0.009,0.007,0.6996566720073243,0.8112916762035554,0.7174639505607691,0.8183108262760357,3.225,True,True,False,False,False,CF_2
1776181429.9544954,-0.09354434162378311,0.05407062545418739,1.014154076576233,-0.006583176553249359,0.0029476508498191833,-0.4705839157104492,-0.8823257684707642,0.0006827038596384227,-0.093,0.053,1.014,0.005535082435902524,-0.002767541217951262,0.47048200705171456,0.8823878878467367,0.007,-0.015,0.003,0.092,-0.041,9.806,-0.08819089084863663,0.03349475935101509,0.99981290102005,-0.009,0.009,0.007,0.6996566720073243,0.8112916762035554,0.7174639505607691,0.8183108262760357,3.225,True,True,False,False,False,CF_2
1776181429.9711065,-0.09349171817302704,0.054038189351558685,1.0141881704330444,-0.006766309030354023,0.0027531480882316828,-0.47068697214126587,-0.882270097732544,0.0006870516226626933,-0.093,0.053,1.014,0.005535082435902524,-0.002767541217951262,0.47048200705171456,0.8823878878467367,0.006,-0.016,0.001,-0.132,-0.038,9.601,-0.08819089084863663,0.03349475935101509,0.99981290102005,0.036,-0.038,0.001,0.7050278477149615,0.8157473105973907,0.7122148470283055,0.8128938735027085,3.225,True,True,False,False,False,CF_2
1776181429.98841,-0.09339912980794907,0.05400597304105759,1.01423180103302,-0.007186660543084145,0.002110106172040105,-0.47052299976348877,-0.8823560476303101,0.0006977993180043995,-0.093,0.053,1.014,0.005535082435902524,-0.002767541217951262,0.47048200705171456,0.8823878878467367,0.006,-0.016,0.001,-0.132,-0.038,9.601,-0.08810204267501831,0.03346101567149162,0.999107837677002,0.036,-0.038,0.001,0.7050278477149615,0.8157473105973907,0.7122148470283055,0.8128938735027085,3.225,True,True,False,False,False,CF_2
1776181429.9967873,-0.09335928410291672,0.05398891866207123,1.0142394304275513,-0.007392148487269878,0.0014347501564770937,-0.47042369842529297,-0.8824086785316467,0.0007057064794935286,-0.093,0.053,1.014,0.005535082435902524,-0.001383770608975631,0.47048200705171456,0.882391142907679,0.006,-0.016,0.001,-0.132,-0.038,9.601,-0.08810204267501831,0.03346101567149162,0.999107837677002,0.036,-0.038,0.001,0.7050278477149615,0.8157473105973907,0.7122148470283055,0.8128938735027085,3.225,True,True,False,False,False,CF_2
32548,-0.09328543394804001,0.05390035733580589,1.0142667293548584,-0.00769052654504776,0.0012208319967612624,-0.4701879024505615,-0.882532000541687,0.0007123834220692515,-0.093,0.053,1.014,0.005535082435902524,-0.001383770608975631,0.47048200705171456,0.882391142907679,0.007,-0.017,-0.018,0.778,-0.271,9.766,-0.08810204267501831,0.03346101567149162,0.999107837677002,0.003,-0.014,-0.02,0.7050278477149615,0.8157473105973907,0.7122148470283055,0.8128938735027085,3.225,True,True,False,False,False,CF_2
32552,-0.09321451187133789,0.05380522459745407,1.0143260955810547,-0.007429963443428278,0.0008663794142194092,-0.47008347511291504,-0.8825902342796326,0.0007217337260954082,-0.093,0.053,1.014,0.005535082435902524,-0.001383770608975631,0.47048200705171456,0.882391142907679,0.007,-0.017,-0.018,0.778,-0.271,9.766,-0.08793856203556061,0.03339892625808716,0.9978106021881104,0.003,-0.014,-0.02,0.71108567940795,0.8103303578240635,0.7136034180209049,0.8253452353704127,3.225,True,True,False,False,False,CF_2
32585,-0.09314372390508652,0.05370879918336868,1.0143957138061523,-0.006884814240038395,0.0008384755929000676,-0.46980464458465576,-0.882743239402771,0.0007294862298294902,-0.093,0.053,1.013,0.005535082435902524,-0.001383770608975631,0.47048200705171456,0.882391142907679,0.007,-0.017,-0.018,0.778,-0.271,9.766,-0.08793856203556061,0.03339892625808716,0.9978106021881104,0.003,-0.014,-0.02,0.71108567940795,0.8103303578240635,0.7136034180209049,0.8253452353704127,3.225,True,True,False,False,False,CF_2
1776181430.063803,-0.09308604896068573,0.05360482260584831,1.014428734779358,-0.006320278160274029,0.0011477223597466946,-0.4693114459514618,-0.8830093741416931,0.0007308975327759981,-0.093,0.053,1.013,0.005535082435902524,-0.001383770608975631,0.47048200705171456,0.882391142907679,0.007,-0.017,-0.018,0.778,-0.271,9.766,-0.08793856203556061,0.03339892625808716,0.9978106021881104,0.003,-0.014,-0.02,0.71108567940795,0.8103303578240635,0.7136034180209049,0.8253452353704127,3.225,True,True,False,False,False,CF_2
32602,-0.09307129681110382,0.05344555154442787,1.014392375946045,-0.005466781556606293,0.001561323762871325,-0.46877458691596985,-0.8832996487617493,0.0007241890416480601,-0.093,0.053,1.013,0.005535082435902524,-0.001383770608975631,0.47048200705171456,0.882391142907679,0.008,-0.022,-0.003,-0.549,-0.149,9.979,-0.0875668004155159,0.03325773403048515,0.9948606491088867,-0.054,-0.052,-0.069,0.6923781185626001,0.8110170138094148,0.7068284122987717,0.8325474937056535,3.225,True,True,False,False,False,CF_2
1776181430.0966663,-0.0929989367723465,0.05331263691186905,1.014456033706665,-0.005001510493457317,0.0013299771817401052,-0.46812674403190613,-0.8836462497711182,0.0007177137886174023,-0.092,0.053,1.014,0.005535082435902524,-0.001383770608975631,0.46909823644273896,0.8831275630437777,0.008,-0.022,-0.003,-0.549,-0.149,9.979,-0.0875668004155159,0.03325773403048515,0.9948606491088867,-0.054,-0.052,-0.069,0.6923781185626001,0.8110170138094148,0.7068284122987717,0.8325474937056535,3.225,True,True,False,False,False,CF_2
1776181430.104669,-0.09296556562185287,0.0532555915415287,1.0144705772399902,-0.004712100140750408,0.0010847363155335188,-0.4677581191062927,-0.8838433623313904,0.0007136118947528303,-0.092,0.053,1.014,0.005535082435902524,-0.001383770608975631,0.46909823644273896,0.8831275630437777,0.008,-0.022,-0.003,-0.549,-0.149,9.979,-0.0875668004155159,0.03325773403048515,0.9948606491088867,-0.054,-0.052,-0.069,0.6923781185626001,0.8110170138094148,0.7068284122987717,0.8325474937056535,3.225,True,True,False,False,False,CF_2
32652,-0.09290110319852829,0.05311040207743645,1.0145657062530518,-0.004601405467838049,0.0012641174253076315,-0.4668518602848053,-0.8843227028846741,0.0007038962212391198,-0.092,0.052,1.014,0.004151311826926893,-0.001383770608975631,0.46771446583376325,0.8838687856457286,0.008,-0.022,0.004,-0.134,-0.456,10.095,-0.08695952594280243,0.03302709013223648,0.9900417923927307,-0.054,-0.024,-0.114,0.6726634622720684,0.818997482261387,0.7007400625619897,0.8260013733119707,3.225,True,True,False,False,False,CF_2
32675,-0.09279458969831467,0.05295213311910629,1.0147278308868408,-0.004999390337616205,0.0022258975077420473,-0.4657415449619293,-0.8849039077758789,0.0006966566434130073,-0.092,0.052,1.014,0.004151311826926893,-0.001383770608975631,0.4663306952247877,0.8845996464391016,0.008,-0.022,0.004,-0.134,-0.456,10.095,-0.08695952594280243,0.03302709013223648,0.9900417923927307,-0.054,-0.024,-0.114,0.6726634622720684,0.818997482261387,0.7007400625619897,0.8260013733119707,3.225,True,True,False,False,False,CF_2
1776181430.154853,-0.09269659221172333,0.052783653140068054,1.0148717164993286,-0.004815539810806513,0.002379531506448984,-0.46476253867149353,-0.8854190707206726,0.0006820435519330204,-0.092,0.052,1.014,0.004151311826926893,-0.001383770608975631,0.4663306952247877,0.8845996464391016,0.008,-0.022,0.004,-0.134,-0.456,10.095,-0.08695952594280243,0.03302709013223648,0.9900417923927307,-0.054,-0.024,-0.114,0.6726634622720684,0.818997482261387,0.7007400625619897,0.8260013733119707,3.225,True,True,False,False,False,CF_2
32702,-0.09261536598205566,0.05262196063995361,1.0149707794189453,-0.005317896604537964,0.001958627486601472,-0.4636978507041931,-0.8859753608703613,0.000686116109136492,-0.092,0.052,1.014,0.004151311826926893,-0.001383770608975631,0.4663306952247877,0.8845996464391016,0.009,-0.024,0.006,0.701,0.386,9.419,-0.0862063392996788,0.03274103254079819,0.9840651154518127,0.007,0.006,-0.151,0.693339436942092,0.8119478141451133,0.6977035172045472,0.8079499504081789,3.23,True,True,False,False,False,CF_2
1776181430.1876028,-0.09256121516227722,0.05245883762836456,1.0151019096374512,-0.005698618479073048,0.0013299650745466352,-0.4624846279621124,-0.8866080045700073,0.0006894568214192986,-0.092,0.052,1.014,0.004151311826926893,-0.001383770608975631,0.464946924615812,0.8853277410537387,0.009,-0.024,0.006,0.701,0.386,9.419,-0.0862063392996788,0.03274103254079819,0.9840651154518127,0.007,0.006,-0.151,0.693339436942092,0.8119478141451133,0.6977035172045472,0.8079499504081789,3.23,True,True,False,False,False,CF_2
32735,-0.09251530468463898,0.052358970046043396,1.015173077583313,-0.006366583984345198,0.001029080362059176,-0.4618825316429138,-0.8869177103042603,0.0006853316444903612,-0.092,0.052,1.015,0.004151311826926893,-0.001383770608975631,0.46217938339786074,0.886775658975251,0.009,-0.024,0.006,0.701,0.386,9.419,-0.0862063392996788,0.03274103254079819,0.9840651154518127,0.007,0.006,-0.151,0.693339436942092,0.8119478141451133,0.6977035172045472,0.8079499504081789,3.23,True,True,False,False,False,CF_2
1776181430.2133632,-0.09240315109491348,0.052156366407871246,1.0152889490127563,-0.0064093247056007385,0.0009009719942696393,-0.46050867438316345,-0.8876316547393799,0.0006902965251356363,-0.092,0.052,1.015,0.004151311826926893,-0.001383770608975631,0.46217938339786074,0.886775658975251,0.008,-0.024,0.007,-0.064,-0.002,9.734,-0.0862063392996788,0.03274103254079819,0.9840651154518127,0.015,-0.003,-0.172,0.6849317158770123,0.8028839551384757,0.6988479438467994,0.8035248340581369,3.23,True,True,False,False,False,CF_2
1776181430.2294686,-0.09229127317667007,0.0519600510597229,1.0154197216033936,-0.006935996003448963,0.0007618414238095284,-0.459216445684433,-0.8882970809936523,0.0006921125459484756,-0.092,0.051,1.015,0.004151311826926893,-0.0,0.46079561278888514,0.8874965745537452,0.008,-0.024,0.007,-0.064,-0.002,9.734,-0.0849902331829071,0.032279156148433685,0.9744150638580322,0.015,-0.003,-0.172,0.6849317158770123,0.8028839551384757,0.6988479438467994,0.8035248340581369,3.23,True,True,False,False,False,CF_2
1776181430.2460678,-0.09220988303422928,0.05176384747028351,1.0154117345809937,-0.0068212891928851604,4.591091783368029e-05,-0.4580608010292053,-0.8888947367668152,0.0006877360283397138,-0.092,0.051,1.015,0.004151311826926893,-0.0,0.46079561278888514,0.8874965745537452,0.008,-0.024,0.007,-0.064,-0.002,9.734,-0.0849902331829071,0.032279156148433685,0.9744150638580322,0.015,-0.003,-0.172,0.6849317158770123,0.8028839551384757,0.6988479438467994,0.8035248340581369,3.23,True,True,False,False,False,CF_2
32799,-0.09212226420640945,0.051578339189291,1.0154545307159424,-0.00683450885117054,-0.00011036192154278979,-0.4565795660018921,-0.8896564245223999,0.0006963794003240764,-0.092,0.051,1.015,0.005535082435902524,-0.0,0.4580280715709339,0.8889204961724301,0.009,-0.025,0.002,0.029,-0.13,9.595,-0.0849902331829071,0.032279156148433685,0.9744150638580322,0.041,0.03,-0.198,0.6818036163881895,0.7942931258106355,0.6961318379491874,0.8003356984817274,3.23,True,True,False,False,False,CF_2
1776181430.2800052,-0.091986745595932,0.05134283006191254,1.0155082941055298,-0.006968919653445482,0.0007801168248988688,-0.4550423324108124,-0.8904421925544739,0.0006896997801959515,-0.092,0.051,1.015,0.005535082435902524,-0.0,0.4580280715709339,0.8889204961724301,0.009,-0.025,0.002,0.029,-0.13,9.595,-0.0833747461438179,0.03166559711098671,0.9615957736968994,0.041,0.03,-0.198,0.6818036163881895,0.7942931258106355,0.6961318379491874,0.8003356984817274,3.23,True,True,False,False,False,CF_2
1776181430.2966053,-0.09182950854301453,0.051126815378665924,1.0154155492782593,-0.006838132161647081,0.0005958346882835031,-0.45346561074256897,-0.8912473917007446,0.0006922167958691716,-0.091,0.05,1.015,0.005535082435902524,-0.0,0.45526053035298264,0.8903410651908339,0.009,-0.025,0.002,0.029,-0.13,9.595,-0.0833747461438179,0.03166559711098671,0.9615957736968994,0.041,0.03,-0.198,0.6818036163881895,0.7942931258106355,0.6961318379491874,0.8003356984817274,3.23,True,True,False,False,False,CF_2
1776181430.313406,-0.09167176485061646,0.05093204975128174,1.0153312683105469,-0.006088184658437967,-0.00016363823669962585,-0.45183059573173523,-0.8920830488204956,0.0007023304351605475,-0.091,0.05,1.015,0.005535082435902524,-0.0,0.45526053035298264,0.8903410651908339,0.009,-0.025,0.002,0.029,-0.13,9.595,-0.0833747461438179,0.03166559711098671,0.9615957736968994,0.041,0.03,-0.198,0.6818036163881895,0.7942931258106355,0.6961318379491874,0.8003356984817274,3.23,True,True,False,False,False,CF_2
32855,-0.0916038230061531,0.050824470818042755,1.0152583122253418,-0.006351583171635866,-2.1830646801390685e-05,-0.45086878538131714,-0.8925676941871643,0.000703807920217514,-0.091,0.05,1.015,0.005535082435902524,-0.0,0.4524929891350314,0.8917507822514495,0.011,-0.029,-0.007,-0.798,0.038,9.7,-0.08166506141424179,0.031016260385513306,0.948029100894928,-0.033,-0.033,-0.23,0.6841840238040742,0.7736781872281987,0.6903181506065461,0.7994659342336157,3.23,True,True,False,False,False,CF_2
1776181430.3384185,-0.09142627567052841,0.05054505169391632,1.0149904489517212,-0.006927270907908678,-0.0006378242978826165,-0.4485822916030884,-0.8937145471572876,0.0007052433793433011,-0.091,0.05,1.015,0.005535082435902524,-0.0,0.4524929891350314,0.8917507822514495,0.011,-0.029,-0.007,-0.798,0.038,9.7,-0.08166506141424179,0.031016260385513306,0.948029100894928,-0.033,-0.033,-0.23,0.6841840238040742,0.7736781872281987,0.6903181506065461,0.7994659342336157,3.23,True,True,False,False,False,CF_2
32898,-0.09124478697776794,0.05030589550733566,1.0146775245666504,-0.0070730289444327354,-0.001010171603411436,-0.4468843638896942,-0.8945631980895996,0.0007016951567493379,-0.091,0.049,1.014,0.005535082435902524,0.0,0.4483416773081044,0.8938451226308635,0.013,-0.03,-0.024,-0.049,-0.239,9.663,-0.08166506141424179,0.031016260385513306,0.948029100894928,-0.028,-0.035,-0.259,0.6841840238040742,0.7736781872281987,0.6903181506065461,0.7994659342336157,3.23,True,True,False,False,False,CF_2
1776181430.3719094,-0.09110325574874878,0.05001508817076683,1.0141431093215942,-0.0058887433260679245,-0.0013226484879851341,-0.4449688196182251,-0.8955258131027222,0.0007012144196778536,-0.091,0.049,1.014,0.005535082435902524,0.0,0.4483416773081044,0.8938451226308635,0.013,-0.03,-0.024,-0.049,-0.239,9.663,-0.07913412153720856,0.03005501627922058,0.927945613861084,-0.028,-0.035,-0.259,0.6759899290455482,0.7782711528191043,0.6979934386205844,0.7779507133592737,3.23,True,True,False,False,False,CF_2
1776181430.3875902,-0.09087501466274261,0.04975205287337303,1.0136003494262695,-0.006307460833340883,-8.781762153375894e-05,-0.442849725484848,-0.8965737223625183,0.0006866442272439599,-0.09,0.049,1.014,0.004151311826926893,0.0,0.44557413609015317,0.8952354192376603,0.013,-0.03,-0.024,-0.049,-0.239,9.663,-0.07913412153720856,0.03005501627922058,0.927945613861084,-0.028,-0.035,-0.259,0.6759899290455482,0.7782711528191043,0.6979934386205844,0.7779507133592737,3.23,True,True,False,False,False,CF_2
1776181430.4046264,-0.09066865593194962,0.049475718289613724,1.012976050376892,-0.007309687323868275,-0.000293992692604661,-0.44051626324653625,-0.8977149128913879,0.0007010687259025872,-0.09,0.049,1.014,0.004151311826926893,0.0,0.44557413609015317,0.8952354192376603,0.013,-0.03,-0.024,-0.049,-0.239,9.663,-0.07913412153720856,0.03005501627922058,0.927945613861084,-0.028,-0.035,-0.259,0.6759899290455482,0.7782711528191043,0.6979934386205844,0.7779507133592737,3.23,True,True,False,False,False,CF_2
1776181430.4211493,-0.09043118357658386,0.049205631017684937,1.0121922492980957,-0.006035446655005217,-0.0005823843530379236,-0.43828287720680237,-0.898816704750061,0.000693405803758651,-0.09,0.048,1.013,0.004151311826926893,0.0,0.4414228242632263,0.8972896170298598,0.014,-0.03,-0.042,-0.133,-0.005,9.374,-0.07675692439079285,0.02915216237306595,0.9090820550918579,0.009,0.031,-0.324,0.6619516289005875,0.7619439993896391,0.7080338750286107,0.767177843900206,3.23,True,True,False,False,False,CF_2
1776181430.438454,-0.09020901471376419,0.04885676130652428,1.0111279487609863,-0.007154515944421291,-0.0006778754177503288,-0.4353504478931427,-0.9002323746681213,0.0006958093144930899,-0.09,0.048,1.011,0.004151311826926893,0.0,0.4372715124362994,0.8993199603154524,0.014,-0.03,-0.042,-0.133,-0.005,9.374,-0.07675692439079285,0.02915216237306595,0.9090820550918579,0.009,0.031,-0.324,0.6619516289005875,0.7619439993896391,0.7080338750286107,0.767177843900206,3.23,True,True,False,False,False,CF_2
1776181430.4464526,-0.09009674191474915,0.04872957989573479,1.0106076002120972,-0.006802527233958244,7.12149339960888e-05,-0.4340655505657196,-0.9008556604385376,0.0006992387934587896,-0.09,0.048,1.011,0.004151311826926893,0.0,0.4372715124362994,0.8993199603154524,0.014,-0.03,-0.042,-0.133,-0.005,9.374,-0.07675692439079285,0.02915216237306595,0.9090820550918579,0.009,0.031,-0.324,0.6619516289005875,0.7619439993896391,0.7080338750286107,0.767177843900206,3.23,True,True,False,False,False,CF_2
1776181430.462782,-0.08986635506153107,0.0484093613922596,1.0093480348587036,-0.00710934167727828,-0.0010596205247566104,-0.4309670329093933,-0.9023391008377075,0.0006791196647100151,-0.09,0.048,1.011,0.004151311826926893,0.0,0.4372715124362994,0.8993199603154524,0.016,-0.031,-0.062,-0.354,0.307,8.74,-0.07675692439079285,0.02915216237306595,0.9090820550918579,0.0,0.001,-0.397,0.6619516289005875,0.7619439993896391,0.7080338750286107,0.767177843900206,3.23,True,True,False,False,False,CF_2
1776181430.48011,-0.08960782736539841,0.04813216254115105,1.0080349445343018,-0.005988554563373327,-0.0011114804074168205,-0.42807286977767944,-0.9037237763404846,0.0006902483874000609,-0.089,0.047,1.009,0.004151311826926893,0.0,0.43173643000039685,0.9019902558346338,0.016,-0.031,-0.062,-0.354,0.307,8.74,-0.07335319370031357,0.02785942703485489,0.8820727467536926,0.0,0.001,-0.397,0.677912565804532,0.7512016479743648,0.6865491721980621,0.7579613946746013,3.23,True,True,False,False,False,CF_2
33035,-0.08933243155479431,0.047838110476732254,1.006493330001831,-0.007080825977027416,-0.0019279421539977193,-0.4243537187576294,-0.9054668545722961,0.0006876814877614379,-0.089,0.047,1.007,0.004151311826926893,0.0,0.42620134756449435,0.9046188025595779,0.016,-0.031,-0.062,-0.354,0.307,8.74,-0.07335319370031357,0.02785942703485489,0.8820727467536926,0.0,0.001,-0.397,0.677912565804532,0.7512016479743648,0.6865491721980621,0.7579613946746013,3.23,True,True,False,False,False,CF_2
1776181430.5134513,-0.08904049545526505,0.04750648885965347,1.0048421621322632,-0.006934283301234245,-0.0021059741266071796,-0.42115703225135803,-0.906958818435669,0.0007006938685663044,-0.089,0.047,1.007,0.004151311826926893,0.0,0.42620134756449435,0.9046188025595779,0.018,-0.033,-0.097,0.168,-0.081,9.167,-0.07335319370031357,0.02785942703485489,0.8820727467536926,-0.018,-0.023,-0.477,0.678110933089189,0.7337911039902342,0.6901503013656825,0.747676813916228,3.23,True,True,False,False,False,CF_2
1776181430.5295122,-0.08876382559537888,0.04719802737236023,1.0028425455093384,-0.0066182273440063,-0.002246555872261524,-0.41698819398880005,-0.9088850617408752,0.0007017399184405804,-0.088,0.047,1.004,0.004151311826926893,0.001383770608975631,0.41928249451961624,0.9078452740299007,0.018,-0.033,-0.097,0.168,-0.081,9.167,-0.07022791355848312,0.026672454550862312,0.8572730422019958,-0.018,-0.023,-0.477,0.678110933089189,0.7337911039902342,0.6901503013656825,0.747676813916228,3.23,True,True,False,False,False,CF_2
1776181430.5390584,-0.08862118422985077,0.04702311009168625,1.0018119812011719,-0.0064067235216498375,-0.0008163706515915692,-0.41532906889915466,-0.9096482992172241,0.0006954387063160539,-0.088,0.047,1.004,0.004151311826926893,0.001383770608975631,0.41928249451961624,0.9078452740299007,0.018,-0.033,-0.097,0.168,-0.081,9.167,-0.07022791355848312,0.026672454550862312,0.8572730422019958,-0.018,-0.023,-0.477,0.678110933089189,0.7337911039902342,0.6901503013656825,0.747676813916228,3.23,True,True,False,False,False,CF_2
33095,-0.08831380307674408,0.04669494181871414,0.9995388984680176,-0.005898079369217157,-0.002525990130379796,-0.41117915511131287,-0.9115321040153503,0.0006994595169089735,-0.088,0.046,1.001,0.004151311826926893,0.001383770608975631,0.41236364147473803,0.9110088248632452,0.018,-0.033,-0.097,0.168,-0.081,9.167,-0.07022791355848312,0.026672454550862312,0.8572730422019958,-0.018,-0.023,-0.477,0.678110933089189,0.7337911039902342,0.6901503013656825,0.747676813916228,3.23,True,True,False,False,False,CF_2
33102,-0.08788534253835678,0.04645273834466934,0.9973286390304565,-0.002970955101773143,-0.0015710899606347084,-0.4072943329811096,-0.913290798664093,0.0006147778476588428,-0.088,0.046,1.001,0.004151311826926893,0.001383770608975631,0.41236364147473803,0.9110088248632452,0.02,-0.033,-0.131,0.492,-0.256,8.934,-0.06602809578180313,0.025077369064092636,0.8239465951919556,-0.045,0.0,-0.595,0.6561989776455329,0.7186999313344015,0.6983443961242084,0.7439383535515374,3.23,True,True,False,False,False,CF_2
1776181430.5886366,-0.08765677362680435,0.04609142243862152,0.9943774938583374,-0.005925998091697693,-0.0017647788627073169,-0.4016123414039612,-0.9157888889312744,0.0007154623162932694,-0.087,0.045,0.997,0.002767541217951262,0.001383770608975631,0.40406101782088427,0.9147268006197586,0.02,-0.033,-0.131,0.492,-0.256,8.934,-0.06602809578180313,0.025077369064092636,0.8239465951919556,-0.045,0.0,-0.595,0.6561989776455329,0.7186999313344015,0.6983443961242084,0.7439383535515374,3.23,True,True,False,False,False,CF_2
1776181430.6051083,-0.08735612779855728,0.04575977101922035,0.9913251399993896,-0.004928734619170427,-0.0023717517033219337,-0.39654916524887085,-0.9179971814155579,0.000704477890394628,-0.087,0.045,0.997,0.002767541217951262,0.001383770608975631,0.40406101782088427,0.9147268006197586,0.02,-0.033,-0.131,0.492,-0.256,8.934,-0.06602809578180313,0.025077369064092636,0.8239465951919556,-0.045,0.0,-0.595,0.6561989776455329,0.7186999313344015,0.6983443961242084,0.7439383535515374,3.23,True,True,False,False,False,CF_2
1776181430.6227663,-0.08706805855035782,0.04542781785130501,0.9880388379096985,-0.0047326115891337395,-0.0018636988243088126,-0.3910571336746216,-0.9203523993492126,0.0006987876258790493,-0.087,0.045,0.992,0.002767541217951262,0.001383770608975631,0.39575839416703046,0.9183494538250905,0.021,-0.03,-0.173,0.3,-0.329,9.128,-0.06231722608208656,0.023667987436056137,0.7945000529289246,-0.034,-0.022,-0.721,0.6587777523460746,0.7086442359044786,0.6999160753795681,0.7333180743114366,3.23,True,True,False,False,False,CF_2
1776181430.6389382,-0.0867118313908577,0.045159533619880676,0.984533965587616,-0.005073800217360258,-0.0015533196274191141,-0.384970098733902,-0.9229137897491455,0.0007042840588837862,-0.087,0.045,0.992,0.002767541217951262,0.001383770608975631,0.39575839416703046,0.9183494538250905,0.021,-0.03,-0.173,0.3,-0.329,9.128,-0.06231722608208656,0.023667987436056137,0.7945000529289246,-0.034,-0.022,-0.721,0.6587777523460746,0.7086442359044786,0.6999160753795681,0.7333180743114366,3.23,True,True,False,False,False,CF_2
1776181430.654454,-0.08635327219963074,0.04485426843166351,0.9807791709899902,-0.004922470077872276,-0.0015529125230386853,-0.37922826409339905,-0.9252887964248657,0.0007048497209325433,-0.086,0.044,0.984,0.002767541217951262,0.001383770608975631,0.3846882292952254,0.9230413815946784,0.021,-0.03,-0.173,0.3,-0.329,9.128,-0.06231722608208656,0.023667987436056137,0.7945000529289246,-0.034,-0.022,-0.721,0.6587777523460746,0.7086442359044786,0.6999160753795681,0.7333180743114366,3.23,True,True,False,False,False,CF_2
33202,-0.08618819713592529,0.04470326006412506,0.9787999391555786,-0.006206069141626358,-0.0014340850757434964,-0.37541884183883667,-0.9268333911895752,0.0006992961280047894,-0.086,0.044,0.984,0.002767541217951262,0.001383770608975631,0.3846882292952254,0.9230413815946784,0.024,-0.031,-0.232,0.0,-0.072,9.129,-0.057503268122673035,0.021839655935764313,0.7563003897666931,0.018,0.012,-0.821,0.669962615396353,0.7088120851453422,0.6987258716716258,0.7155260547798886,3.278,True,True,False,False,False,CF_2
33215,-0.08583948016166687,0.04432621970772743,0.9745100140571594,-0.006510901264846325,-0.0020037072245031595,-0.36916497349739075,-0.9293389320373535,0.0006903691100887954,-0.086,0.044,0.978,0.002767541217951262,0.001383770608975631,0.3736180644234204,0.927577472684091,0.024,-0.031,-0.232,0.0,-0.072,9.129,-0.057503268122673035,0.021839655935764313,0.7563003897666931,0.018,0.012,-0.821,0.669962615396353,0.7088120851453422,0.6987258716716258,0.7155260547798886,3.278,True,True,False,False,False,CF_2
1776181430.6969204,-0.08545315265655518,0.04405316337943077,0.9701031446456909,-0.006081624422222376,-0.0014231066452339292,-0.3626704812049866,-0.9318965077400208,0.0006843666196800768,-0.086,0.044,0.978,0.002767541217951262,0.001383770608975631,0.3736180644234204,0.927577472684091,0.024,-0.031,-0.232,0.0,-0.072,9.129,-0.057503268122673035,0.021839655935764313,0.7563003897666931,0.018,0.012,-0.821,0.669962615396353,0.7088120851453422,0.6987258716716258,0.7155260547798886,3.278,True,True,False,False,False,CF_2
33249,-0.08508308231830597,0.043724026530981064,0.9653016924858093,-0.006998660508543253,-0.0007954998291097581,-0.3553175926208496,-0.9347190856933594,0.0006896270206198096,-0.085,0.043,0.971,0.004151311826926893,0.001383770608975631,0.3611641289426397,0.9324919966166582,0.025,-0.03,-0.273,0.248,0.12,8.973,-0.057503268122673035,0.021839655935764313,0.7563003897666931,0.047,0.03,-0.922,0.6694590676737621,0.7006942854962996,0.6943617914091706,0.7154802777141985,3.278,True,True,False,False,False,CF_2
1776181430.729413,-0.08467146754264832,0.04341788589954376,0.9602451920509338,-0.006755343172699213,-0.0013045704690739512,-0.3480595648288727,-0.9374471306800842,0.0006973417475819588,-0.085,0.043,0.971,0.004151311826926893,0.001383770608975631,0.3611641289426397,0.9324919966166582,0.025,-0.03,-0.273,0.248,0.12,8.973,-0.053387828171253204,0.020276620984077454,0.7236434817314148,0.047,0.03,-0.922,0.6694590676737621,0.7006942854962996,0.6943617914091706,0.7154802777141985,3.278,True,True,False,False,False,CF_2
1776181430.7461853,-0.08426234126091003,0.04303537681698799,0.9548830389976501,-0.007601817604154348,-0.0016099236672744155,-0.3404436707496643,-0.9402328133583069,0.0006884882459416986,-0.084,0.043,0.962,0.005535082435902524,0.0,0.348710193461859,0.9372142571676023,0.025,-0.03,-0.273,0.248,0.12,8.973,-0.053387828171253204,0.020276620984077454,0.7236434817314148,0.047,0.03,-0.922,0.6694590676737621,0.7006942854962996,0.6943617914091706,0.7154802777141985,3.278,True,True,False,False,False,CF_2
1776181430.7632105,-0.08381761610507965,0.04271514341235161,0.9492371678352356,-0.008569522760808468,-0.0020654108375310898,-0.33230477571487427,-0.9431309103965759,0.0006967114168219268,-0.084,0.043,0.962,0.005535082435902524,0.0,0.348710193461859,0.9372142571676023,0.026,-0.031,-0.329,0.313,-0.3,8.55,-0.053387828171253204,0.020276620984077454,0.7236434817314148,0.084,0.017,-1.035,0.6694590676737621,0.7006942854962996,0.6943617914091706,0.7154802777141985,3.278,True,True,False,False,False,CF_2
33305,-0.08360379934310913,0.04253530874848366,0.9463249444961548,-0.008691737428307533,-0.0029598944820463657,-0.3284214735031128,-0.944486677646637,0.0006937807193025947,-0.083,0.042,0.952,0.005535082435902524,0.001383770608975631,0.3348724873721027,0.9422461808054997,0.026,-0.031,-0.329,0.313,-0.3,8.55,-0.048213791102170944,0.018311524763703346,0.6825864911079407,0.084,0.017,-1.035,0.6704051270313572,0.7165026321812772,0.6841229877164874,0.6970016021972991,3.278,True,True,False,False,False,CF_2
1776181430.7886493,-0.08309265226125717,0.042204245924949646,0.9402592182159424,-0.010339807718992233,-0.003075571032240987,-0.31964921951293945,-0.9474745392799377,0.0006985414656810462,-0.083,0.042,0.952,0.005535082435902524,0.001383770608975631,0.3348724873721027,0.9422461808054997,0.026,-0.031,-0.329,0.313,-0.3,8.55,-0.048213791102170944,0.018311524763703346,0.6825864911079407,0.084,0.017,-1.035,0.6704051270313572,0.7165026321812772,0.6841229877164874,0.6970016021972991,3.278,True,True,False,False,False,CF_2
1776181430.8063774,-0.08259235322475433,0.04179224744439125,0.9338563680648804,-0.011489097028970718,-0.005098041146993637,-0.31087881326675415,-0.9503664374351501,0.0006906453636474907,-0.083,0.041,0.942,0.006918853044878155,0.001383770608975631,0.31965101067337076,0.9475090743770942,0.026,-0.031,-0.329,0.313,-0.3,8.55,-0.048213791102170944,0.018311524763703346,0.6825864911079407,0.084,0.017,-1.035,0.6704051270313572,0.7165026321812772,0.6841229877164874,0.6970016021972991,3.278,True,True,False,False,False,CF_2
1776181430.8214157,-0.08204714208841324,0.04142574593424797,0.9272069334983826,-0.012405207380652428,-0.0042543974705040455,-0.30147045850753784,-0.9533853530883789,0.0007131897145882249,-0.083,0.041,0.942,0.006918853044878155,0.001383770608975631,0.31965101067337076,0.9475090743770942,0.029,-0.035,-0.382,-0.426,0.062,8.812,-0.04401876777410507,0.016718266531825066,0.6492981314659119,0.148,-0.037,-1.171,0.6622415503166247,0.7149614709697109,0.6992446784161135,0.70087739375906,3.278,True,True,False,False,False,CF_2
1776181430.8378048,-0.08150768280029297,0.04098404943943024,0.9201773405075073,-0.01200045458972454,-0.006186348386108875,-0.29208019375801086,-0.9562985301017761,0.0007099007489159703,-0.082,0.041,0.93,0.009686394262829417,0.002767541217951262,0.3030457633656632,0.9529227564645072,0.029,-0.035,-0.382,-0.426,0.062,8.812,-0.04401876777410507,0.016718266531825066,0.6492981314659119,0.148,-0.037,-1.171,0.6622415503166247,0.7149614709697109,0.6992446784161135,0.70087739375906,3.278,True,True,False,False,False,CF_2
1776181430.8545175,-0.08090728521347046,0.04049815610051155,0.9129133820533752,-0.012190122157335281,-0.006302697584033012,-0.2820851802825928,-0.9592912793159485,0.0007204338326118886,-0.082,0.041,0.93,0.009686394262829417,0.002767541217951262,0.3030457633656632,0.9529227564645072,0.029,-0.035,-0.382,-0.426,0.062,8.812,-0.04401876777410507,0.016718266531825066,0.6492981314659119,0.148,-0.037,-1.171,0.6622415503166247,0.7149614709697109,0.6992446784161135,0.70087739375906,3.278,True,True,False,False,False,CF_2
1776181430.8718266,-0.08028542995452881,0.04005663841962814,0.9053621292114258,-0.013115882873535156,-0.006950432900339365,-0.2716810703277588,-0.9622728824615479,0.0007126955315470695,-0.081,0.04,0.916,0.009686394262829417,0.004151311826926893,0.2864405160579556,0.9580400676050833,0.035,-0.039,-0.437,-0.135,-0.101,8.339,-0.04401876777410507,0.016718266531825066,0.6492981314659119,0.006,-0.046,-1.271,0.6726634622720684,0.7073777370870528,0.6915083543144884,0.7116960402838178,3.278,True,True,False,False,False,CF_2
1776181430.8802028,-0.07995833456516266,0.03977847099304199,0.9013985395431519,-0.013108699582517147,-0.0066647580824792385,-0.26645949482917786,-0.9637339115142822,0.0007133883773349226,-0.081,0.04,0.916,0.009686394262829417,0.004151311826926893,0.2864405160579556,0.9580400676050833,0.035,-0.039,-0.437,-0.135,-0.101,8.339,-0.03897041082382202,0.01480091456323862,0.6092383861541748,0.006,-0.046,-1.271,0.6726634622720684,0.7073777370870528,0.6915083543144884,0.7116960402838178,3.278,True,True,False,False,False,CF_2
1776181430.8964188,-0.07926417887210846,0.0392913892865181,0.8934601545333862,-0.013572939671576023,-0.006810346152633429,-0.25613319873809814,-0.9665222764015198,0.0007065483368933201,-0.08,0.039,0.902,0.011070164871805049,0.005535082435902524,0.2670677275322968,0.9635982789642548,0.035,-0.039,-0.437,-0.135,-0.101,8.339,-0.03897041082382202,0.01480091456323862,0.6092383861541748,0.006,-0.046,-1.271,0.6726634622720684,0.7073777370870528,0.6915083543144884,0.7116960402838178,3.278,True,True,False,False,False,CF_2
33452,-0.07858573645353317,0.038798701018095016,0.8851176500320435,-0.01365769561380148,-0.009083735756576061,-0.24501624703407288,-0.969380259513855,0.0006963949417695403,-0.08,0.039,0.902,0.011070164871805049,0.005535082435902524,0.2670677275322968,0.9635982789642548,0.041,-0.044,-0.477,-0.095,0.088,8.772,-0.034839943051338196,0.013232178054749966,0.5764625072479248,0.041,-0.088,-1.347,0.6721141374837873,0.7079118028534371,0.6839246204318303,0.7237048905165179,3.278,True,True,False,False,False,CF_2
1776181430.9301405,-0.07781614363193512,0.03820209950208664,0.8766018152236938,-0.013834516517817974,-0.009722813963890076,-0.23383916914463043,-0.9721282720565796,0.000713666551746428,-0.079,0.038,0.89,0.011070164871805049,0.006918853044878155,0.24907870961561357,0.9683952588372556,0.041,-0.044,-0.477,-0.095,0.088,8.772,-0.034839943051338196,0.013232178054749966,0.5764625072479248,0.041,-0.088,-1.347,0.6721141374837873,0.7079118028534371,0.6839246204318303,0.7237048905165179,3.278,True,True,False,False,False,CF_2
1776181430.9461255,-0.07699758559465408,0.037661902606487274,0.8677264451980591,-0.013325389474630356,-0.010799892246723175,-0.22318533062934875,-0.9746251106262207,0.0007085759425535798,-0.079,0.038,0.89,0.011070164871805049,0.006918853044878155,0.24907870961561357,0.9683952588372556,0.041,-0.044,-0.477,-0.095,0.088,8.772,-0.034839943051338196,0.013232178054749966,0.5764625072479248,0.041,-0.088,-1.347,0.6721141374837873,0.7079118028534371,0.6839246204318303,0.7237048905165179,3.278,True,True,False,False,False,CF_2
1776181430.9633288,-0.07613219320774078,0.03695603087544441,0.8585730195045471,-0.013410430401563644,-0.010258861817419529,-0.21191096305847168,-0.9771431088447571,0.0007055061287246644,-0.077,0.037,0.875,0.011070164871805049,0.008302623653853786,0.22970592108995475,0.9731617068639666,0.05,-0.049,-0.528,0.366,0.123,8.679,-0.034839943051338196,0.013232178054749966,0.5764625072479248,-0.085,-0.031,-1.397,0.6721141374837873,0.7079118028534371,0.6839246204318303,0.7237048905165179,3.278,True,True,False,False,False,CF_2
33515,-0.0756528303027153,0.036642953753471375,0.8539943695068359,-0.012094768695533276,-0.011990548111498356,-0.2061150223016739,-0.9783796072006226,0.0007224262808449566,-0.075,0.036,0.855,0.009686394262829417,0.008302623653853786,0.20894936195532027,0.9778432411921207,0.05,-0.049,-0.528,0.366,0.123,8.679,-0.029739905148744583,0.011295199394226074,0.5359926819801331,-0.085,-0.031,-1.397,0.6619516289005875,0.7089494163424125,0.698161287861448,0.7258869306477455,3.278,True,True,False,False,False,CF_2
1776181430.988562,-0.07469518482685089,0.03594396635890007,0.8444153666496277,-0.011652927845716476,-0.011530924588441849,-0.19483648240566254,-0.9806987047195435,0.000708398933056742,-0.075,0.036,0.855,0.009686394262829417,0.008302623653853786,0.20894936195532027,0.9778432411921207,0.05,-0.049,-0.528,0.366,0.123,8.679,-0.029739905148744583,0.011295199394226074,0.5359926819801331,-0.085,-0.031,-1.397,0.6619516289005875,0.7089494163424125,0.698161287861448,0.7258869306477455,3.278,True,True,False,False,False,CF_2
33545,-0.07373054325580597,0.035298291593790054,0.8348003029823303,-0.011408803053200245,-0.009936281479895115,-0.1831699013710022,-0.9829648733139038,0.0007032305002212524,-0.074,0.035,0.838,0.009686394262829417,0.008302623653853786,0.18819280282068582,0.982049239688694,0.05,-0.049,-0.528,0.366,0.123,8.679,-0.029739905148744583,0.011295199394226074,0.5359926819801331,-0.085,-0.031,-1.397,0.6619516289005875,0.7089494163424125,0.698161287861448,0.7258869306477455,3.278,True,True,False,False,False,CF_2
33552,-0.07271917909383774,0.034504134207963943,0.8247270584106445,-0.011440770700573921,-0.009254908189177513,-0.17108893394470215,-0.9851456880569458,0.0006981047918088734,-0.074,0.035,0.838,0.009686394262829417,0.008302623653853786,0.18819280282068582,0.982049239688694,0.061,-0.054,-0.595,0.198,0.028,9.141,-0.025909369811415672,0.009840372949838638,0.5055965781211853,-0.099,0.108,-1.419,0.6651255054551003,0.7469138628213932,0.7112993057145037,0.726314183260853,3.278,True,True,False,False,False,CF_2
33575,-0.0716763511300087,0.033775750547647476,0.8146005272865295,-0.01103316992521286,-0.00862465612590313,-0.15964607894420624,-0.9870750308036804,0.0007231857744045556,-0.072,0.033,0.818,0.008302623653853786,0.006918853044878155,0.1660524730770757,0.9860576920738425,0.061,-0.054,-0.595,0.198,0.028,9.141,-0.025909369811415672,0.009840372949838638,0.5055965781211853,-0.099,0.108,-1.419,0.6651255054551003,0.7469138628213932,0.7112993057145037,0.726314183260853,3.278,True,True,False,False,False,CF_2
1776181431.0548542,-0.07060364633798599,0.03302447870373726,0.8042024374008179,-0.010955140925943851,-0.0076372032053768635,-0.14761680364608765,-0.988954484462738,0.0007149241864681244,-0.072,0.033,0.818,0.008302623653853786,0.006918853044878155,0.1660524730770757,0.9860576920738425,0.061,-0.054,-0.595,0.198,0.028,9.141,-0.025909369811415672,0.009840372949838638,0.5055965781211853,-0.099,0.108,-1.419,0.6651255054551003,0.7469138628213932,0.7112993057145037,0.726314183260853,3.278,True,True,False,False,False,CF_2
33605,-0.07005538791418076,0.032595403492450714,0.7988736629486084,-0.01046534813940525,-0.006508620455861092,-0.14170844852924347,-0.9898317456245422,0.0007268735207617283,-0.07,0.032,0.802,0.006918853044878155,0.004151311826926893,0.14529591394244126,0.9893553423691054,0.07,-0.059,-0.64,0.285,-0.368,9.135,-0.021326372399926186,0.008099769242107868,0.46922972798347473,-0.151,0.17,-1.431,0.6552986953536278,0.7531700617990387,0.7288166628519112,0.7375295643549249,3.278,True,True,False,False,False,CF_2
1776181431.0794358,-0.0689447745680809,0.03176784887909889,0.7882686853408813,-0.008322293870151043,-0.006055341102182865,-0.13028231263160706,-0.9914236068725586,0.0007196607766672969,-0.07,0.032,0.802,0.006918853044878155,0.004151311826926893,0.14529591394244126,0.9893553423691054,0.07,-0.059,-0.64,0.285,-0.368,9.135,-0.021326372399926186,0.008099769242107868,0.46922972798347473,-0.151,0.17,-1.431,0.6552986953536278,0.7531700617990387,0.7288166628519112,0.7375295643549249,3.278,True,True,False,False,False,CF_2
33635,-0.06785620003938675,0.03097062185406685,0.77740478515625,-0.0062503633089363575,-0.005154288373887539,-0.1180272176861763,-0.9929773211479187,0.0007127660210244358,-0.068,0.03,0.783,0.002767541217951262,0.002767541217951262,0.12453935480780678,0.9922069494491909,0.07,-0.059,-0.64,0.285,-0.368,9.135,-0.021326372399926186,0.008099769242107868,0.46922972798347473,-0.151,0.17,-1.431,0.6552986953536278,0.7531700617990387,0.7288166628519112,0.7375295643549249,3.278,True,True,False,False,False,CF_2
33652,-0.06666616350412369,0.030173681676387787,0.7664421200752258,-0.004921348299831152,-0.005061885807663202,-0.1059180274605751,-0.9943498373031616,0.000720474636182189,-0.068,0.03,0.783,0.002767541217951262,0.002767541217951262,0.12453935480780678,0.9922069494491909,0.073,-0.062,-0.652,-0.428,0.111,9.304,-0.017996858805418015,0.00683522829785943,0.4428096115589142,-0.217,0.002,-1.402,0.662226291294728,0.7450064850843061,0.7172198062104219,0.7619439993896391,3.278,True,True,False,False,False,CF_2
1776181431.1295516,-0.06551797688007355,0.02930968999862671,0.7553101181983948,-0.002988215768709779,-0.0044185402803123,-0.09453952312469482,-0.9955068826675415,0.0007226283778436482,-0.066,0.029,0.764,0.0,0.001383770608975631,0.10378279567317232,0.9945990229741644,0.073,-0.062,-0.652,-0.428,0.111,9.304,-0.017996858805418015,0.00683522829785943,0.4428096115589142,-0.217,0.002,-1.402,0.662226291294728,0.7450064850843061,0.7172198062104219,0.7619439993896391,3.278,True,True,False,False,False,CF_2
1776181431.1463206,-0.06435919553041458,0.028500553220510483,0.7439736723899841,-0.0028663799166679382,-0.005113860126584768,-0.08309657126665115,-0.9965243339538574,0.000739704177249223,-0.066,0.029,0.764,0.0,0.001383770608975631,0.10378279567317232,0.9945990229741644,0.073,-0.062,-0.652,-0.428,0.111,9.304,-0.017996858805418015,0.00683522829785943,0.4428096115589142,-0.217,0.002,-1.402,0.662226291294728,0.7450064850843061,0.7172198062104219,0.7619439993896391,3.278,True,True,False,False,False,CF_2
33698,-0.06380442529916763,0.028073158115148544,0.7382157444953918,-0.003611987689509988,-0.0044951243326067924,-0.07678522169589996,-0.997031033039093,0.0007449085242114961,-0.063,0.027,0.738,-0.001383770608975631,0.002767541217951262,0.08164246592956223,0.9966568785953613,0.076,-0.059,-0.708,0.028,0.005,9.292,-0.017996858805418015,0.00683522829785943,0.4428096115589142,0.012,0.002,-1.393,0.662226291294728,0.7450064850843061,0.7172198062104219,0.7619439993896391,3.278,True,True,False,False,False,CF_2
33702,-0.06261325627565384,0.027248896658420563,0.7266544699668884,-0.0031817422714084387,-0.004131092689931393,-0.06544999033212662,-0.9978422522544861,0.0007306555635295808,-0.063,0.027,0.738,-0.001383770608975631,0.002767541217951262,0.08164246592956223,0.9966568785953613,0.076,-0.059,-0.708,0.028,0.005,9.292,-0.014152362942695618,0.005375107750296593,0.41230252385139465,0.012,0.002,-1.393,0.6808575570305944,0.7661707484550241,0.7203784237430381,0.7758602273594263,3.246,True,True,False,False,False,CF_2
1776181431.1871836,-0.06146816536784172,0.02642628736793995,0.7149485349655151,-0.003977144602686167,-0.005002794321626425,-0.05436185374855995,-0.9985008835792542,0.0007256839890033007,-0.062,0.026,0.723,-0.0,0.001383770608975631,0.060885906794927766,0.99814377297695,0.076,-0.059,-0.708,0.028,0.005,9.292,-0.014152362942695618,0.005375107750296593,0.41230252385139465,0.012,0.002,-1.393,0.6808575570305944,0.7661707484550241,0.7203784237430381,0.7758602273594263,3.246,True,True,False,False,False,CF_2
1776181431.2045982,-0.060311976820230484,0.025639496743679047,0.7031086683273315,-0.0031904634088277817,-0.005330025218427181,-0.04342483729124069,-0.9990374445915222,0.0007406144868582487,-0.062,0.026,0.723,-0.0,0.001383770608975631,0.060885906794927766,0.99814377297695,0.076,-0.059,-0.708,0.028,0.005,9.292,-0.014152362942695618,0.005375107750296593,0.41230252385139465,0.012,0.002,-1.393,0.6808575570305944,0.7661707484550241,0.7203784237430381,0.7758602273594263,3.246,True,True,False,False,False,CF_2
33752,-0.05920293554663658,0.02481260523200035,0.6911670565605164,-0.004205062985420227,-0.0056613353081047535,-0.03263047710061073,-0.9994426965713501,0.0007174027850851417,-0.062,0.026,0.723,-0.0,0.001383770608975631,0.060885906794927766,0.99814377297695,0.074,-0.055,-0.686,0.046,-0.17,9.3,-0.010897633619606495,0.00413893535733223,0.3864756226539612,-0.018,-0.011,-1.285,0.6718089570458533,0.7743343251697566,0.712138551918822,0.766124971389334,3.246,True,True,False,False,False,CF_2
1776181431.2383618,-0.05798090621829033,0.024025479331612587,0.6791543364524841,-0.004025255795568228,-0.005705725401639938,-0.021965358406305313,-0.9997343420982361,0.0007339036674238741,-0.059,0.025,0.702,-0.0,0.001383770608975631,0.04151311826926893,0.9991370007113456,0.074,-0.055,-0.686,0.046,-0.17,9.3,-0.010897633619606495,0.00413893535733223,0.3864756226539612,-0.018,-0.011,-1.285,0.6718089570458533,0.7743343251697566,0.712138551918822,0.766124971389334,3.246,True,True,False,False,False,CF_2
33785,-0.057325854897499084,0.023652423173189163,0.6731087565422058,-0.004149393178522587,-0.006403811275959015,-0.01731821335852146,-0.9998209476470947,0.0007430544355884194,-0.057,0.023,0.68,-0.001383770608975631,0.002767541217951262,0.023524100352585727,0.9997184816722706,0.074,-0.055,-0.686,0.046,-0.17,9.3,-0.010897633619606495,0.00413893535733223,0.3864756226539612,-0.018,-0.011,-1.285,0.6718089570458533,0.7743343251697566,0.712138551918822,0.766124971389334,3.246,True,True,False,False,False,CF_2
33802,-0.056115057319402695,0.02285362035036087,0.661017119884491,-0.0038446886464953423,-0.005941325798630714,-0.0075547946617007256,-0.9999464154243469,0.0007456577150151134,-0.057,0.023,0.68,-0.001383770608975631,0.002767541217951262,0.023524100352585727,0.9997184816722706,0.076,-0.053,-0.714,-0.084,-0.003,9.446,-0.008541569113731384,0.0032441553194075823,0.36777952313423157,-0.002,-0.061,-1.161,0.6974441138323033,0.7725185015640498,0.7217669947356374,0.7917753871976806,3.246,True,True,False,False,False,CF_2
1776181431.2795124,-0.05490861088037491,0.02204095758497715,0.648773729801178,-0.004159768112003803,-0.006651362404227257,0.0016596653731539845,-0.9999679327011108,0.0007353564142249525,-0.055,0.022,0.658,-0.001383770608975631,0.004151311826926893,0.005535082435902524,0.9999751070158922,0.076,-0.053,-0.714,-0.084,-0.003,9.446,-0.008541569113731384,0.0032441553194075823,0.36777952313423157,-0.002,-0.061,-1.161,0.6974441138323033,0.7725185015640498,0.7217669947356374,0.7917753871976806,3.246,True,True,False,False,False,CF_2
1776181431.295964,-0.05369051545858383,0.02130589447915554,0.6364212036132812,-0.00410236231982708,-0.0070601170882582664,0.010614756494760513,-0.9999103546142578,0.0007491245050914586,-0.055,0.022,0.658,-0.001383770608975631,0.004151311826926893,0.005535082435902524,0.9999751070158922,0.076,-0.053,-0.714,-0.084,-0.003,9.446,-0.008541569113731384,0.0032441553194075823,0.36777952313423157,-0.002,-0.061,-1.161,0.6974441138323033,0.7725185015640498,0.7217669947356374,0.7917753871976806,3.246,True,True,False,False,False,CF_2
1776181431.313014,-0.05243435874581337,0.020521100610494614,0.6240050196647644,-0.003443667199462652,-0.005940234288573265,0.019196223467588425,-0.999792218208313,0.0007466354873031378,-0.053,0.02,0.638,-0.0,0.002767541217951262,-0.009686394262829417,0.9999492559534169,0.076,-0.053,-0.714,-0.084,-0.003,9.446,-0.008541569113731384,0.0032441553194075823,0.36777952313423157,-0.002,-0.061,-1.161,0.6974441138323033,0.7725185015640498,0.7217669947356374,0.7917753871976806,3.246,True,True,False,False,False,CF_2
1776181431.3291678,-0.05123947560787201,0.019755549728870392,0.6115339994430542,-0.004103138577193022,-0.004499495029449463,0.026991473510861397,-0.9996172189712524,0.0007639057002961636,-0.053,0.02,0.638,-0.0,0.002767541217951262,-0.009686394262829417,0.9999492559534169,0.079,-0.052,-0.727,-0.175,0.307,9.729,-0.006147120147943497,0.0023347593378275633,0.3487795293331146,0.027,0.096,-0.998,0.7082475013351645,0.7955901426718547,0.7239948119325551,0.779293507286183,3.246,True,True,False,False,False,CF_2
1776181431.3456988,-0.04996512085199356,0.01899002306163311,0.5990429520606995,-0.004277672152966261,-0.003214177442714572,0.03479960188269615,-0.9993799924850464,0.000750959909055382,-0.051,0.019,0.615,-0.0,0.001383770608975631,-0.024907870961561357,0.9996887931466792,0.079,-0.052,-0.727,-0.175,0.307,9.729,-0.006147120147943497,0.0023347593378275633,0.3487795293331146,0.027,0.096,-0.998,0.7082475013351645,0.7955901426718547,0.7239948119325551,0.779293507286183,3.246,True,True,False,False,False,CF_2
33899,-0.0492609366774559,0.01860375702381134,0.5928847193717957,-0.004387771710753441,-0.0033674209844321012,0.03812851756811142,-0.9992576241493225,0.0007570383604615927,-0.051,0.019,0.615,-0.0,0.001383770608975631,-0.024907870961561357,0.9996887931466792,0.082,-0.052,-0.752,-0.305,0.264,9.811,-0.006147120147943497,0.0023347593378275633,0.3487795293331146,-0.006,0.043,-0.834,0.7388876173037309,0.8051880674448768,0.7490653849088273,0.8010681315327688,3.246,True,True,False,False,False,CF_2
1776181431.3718455,-0.047999169677495956,0.01790083758533001,0.5803079009056091,-0.0037125030066818,-0.003177245846018195,0.04503847286105156,-0.9989733099937439,0.0007618254167027771,-0.048,0.018,0.59,-0.0,0.001383770608975631,-0.037361806442342035,0.9993008458908992,0.082,-0.052,-0.752,-0.305,0.264,9.811,-0.004539881367236376,0.0017243584152311087,0.3360258936882019,-0.006,0.043,-0.834,0.7388876173037309,0.8051880674448768,0.7490653849088273,0.8010681315327688,3.246,True,True,False,False,False,CF_2
1776181431.3879814,-0.0467386469244957,0.017160700634121895,0.5679478049278259,-0.003495802404358983,-0.002734042936936021,0.05146865174174309,-0.9986647963523865,0.0007279533892869949,-0.048,0.018,0.59,-0.0,0.001383770608975631,-0.037361806442342035,0.9993008458908992,0.082,-0.052,-0.752,-0.305,0.264,9.811,-0.004539881367236376,0.0017243584152311087,0.3360258936882019,-0.006,0.043,-0.834,0.7388876173037309,0.8051880674448768,0.7490653849088273,0.8010681315327688,3.246,True,True,False,False,False,CF_2
1776181431.4050677,-0.04543750733137131,0.016375644132494926,0.5555170774459839,-0.0035638592671602964,-0.001365820993669331,0.05766398832201958,-0.9983288049697876,0.0007504712557420135,-0.046,0.016,0.569,-0.001383770608975631,-0.0,-0.049815741923122714,0.9987574665731168,0.082,-0.052,-0.752,-0.305,0.264,9.811,-0.004539881367236376,0.0017243584152311087,0.3360258936882019,-0.006,0.043,-0.834,0.7388876173037309,0.8051880674448768,0.7490653849088273,0.8010681315327688,3.246,True,True,False,False,False,CF_2
1776181431.4216769,-0.044118646532297134,0.015662342309951782,0.5432353019714355,-0.0031708749011158943,-0.0017104593571275473,0.06269116699695587,-0.9980265498161316,0.0007629350875504315,-0.046,0.016,0.569,-0.001383770608975631,-0.0,-0.049815741923122714,0.9987574665731168,0.082,-0.051,-0.754,0.473,-0.348,9.714,-0.0029436545446515083,0.001118088373914361,0.3233598470687866,0.0,0.078,-0.676,0.7428549629968719,0.8129549095902953,0.77094682230869,0.8075074387731747,3.246,True,True,False,False,False,CF_2
1776181431.4376404,-0.0428900420665741,0.014885157346725464,0.5309225916862488,-0.005004103761166334,-0.0017791630234569311,0.06818880140781403,-0.997658371925354,0.000755494344048202,-0.044,0.015,0.546,-0.0,-0.001383770608975631,-0.05950213618595213,0.9982272191080597,0.082,-0.051,-0.754,0.473,-0.348,9.714,-0.0029436545446515083,0.001118088373914361,0.3233598470687866,0.0,0.078,-0.676,0.7428549629968719,0.8129549095902953,0.77094682230869,0.8075074387731747,3.246,True,True,False,False,False,CF_2
1776181431.453824,-0.04170680791139603,0.014140995219349861,0.5188452005386353,-0.004255696665495634,-0.0003232763265259564,0.07303699105978012,-0.9973201155662537,0.000758355192374438,-0.044,0.015,0.546,-0.0,-0.001383770608975631,-0.05950213618595213,0.9982272191080597,0.082,-0.051,-0.754,0.473,-0.348,9.714,-0.0029436545446515083,0.001118088373914361,0.3233598470687866,0.0,0.078,-0.676,0.7428549629968719,0.8129549095902953,0.77094682230869,0.8075074387731747,3.246,True,True,False,False,False,CF_2
33999,-0.040782179683446884,0.013911300338804722,0.5133175253868103,-0.0005329503328539431,0.00404944084584713,0.07387569546699524,-0.9972591400146484,0.0005610027583315969,-0.041,0.014,0.521,0.001383770608975631,-0.001383770608975631,-0.06918853044878155,0.997601682843479,0.081,-0.051,-0.752,-0.266,-0.248,10.391,-0.0029436545446515083,0.001118088373914361,0.3233598470687866,0.042,0.063,-0.551,0.77431906614786,0.8310521095597773,0.7821469443808652,0.8173495078965438,3.246,True,True,False,False,False,CF_2
1776181431.4800706,-0.03987419977784157,0.01299271546304226,0.5008371472358704,-0.005809318739920855,0.00019942608196288347,0.07946858555078506,-0.9968204498291016,0.0007506315596401691,-0.041,0.014,0.521,0.001383770608975631,-0.001383770608975631,-0.06918853044878155,0.997601682843479,0.081,-0.051,-0.752,-0.266,-0.248,10.391,-0.0019527075346559286,0.0007417876040562987,0.31549641489982605,0.042,0.063,-0.551,0.77431906614786,0.8310521095597773,0.7821469443808652,0.8173495078965438,3.246,True,True,False,False,False,CF_2
1776181431.4963858,-0.03844958543777466,0.012355147860944271,0.4894319474697113,-0.004130163695663214,0.0054921251721680164,0.0827270969748497,-0.9965485334396362,0.0006680769729427993,-0.039,0.012,0.497,0.001383770608975631,-0.002767541217951262,-0.07749115410263534,0.9969882381103351,0.081,-0.051,-0.752,-0.266,-0.248,10.391,-0.0019527075346559286,0.0007417876040562987,0.31549641489982605,0.042,0.063,-0.551,0.77431906614786,0.8310521095597773,0.7821469443808652,0.8173495078965438,3.246,True,True,False,False,False,CF_2
1776181431.513153,-0.03747468814253807,0.01158098317682743,0.4775426387786865,-0.005057600326836109,0.0005596533883363008,0.08626829832792282,-0.9962590336799622,0.000755901972297579,-0.039,0.012,0.497,0.001383770608975631,-0.002767541217951262,-0.07749115410263534,0.9969882381103351,0.076,-0.05,-0.708,-0.324,0.534,9.325,-0.0019527075346559286,0.0007417876040562987,0.31549641489982605,-0.078,0.026,-0.415,0.766323338673991,0.8271000228885328,0.7998779278248265,0.8205996795605401,3.246,True,True,False,False,False,CF_2
1776181431.5295277,-0.03603534772992134,0.010952804237604141,0.46672967076301575,0.00011040073877666146,0.006318784784525633,0.08856599777936935,-0.9960502982139587,0.0005618967697955668,-0.037,0.011,0.482,0.001383770608975631,-0.002767541217951262,-0.08302623653853786,0.9965425580178477,0.076,-0.05,-0.708,-0.324,0.534,9.325,-0.0010814262786880136,0.0004108893917873502,0.30858248472213745,-0.078,0.026,-0.415,0.766323338673991,0.8271000228885328,0.7998779278248265,0.8205996795605401,3.246,True,True,False,False,False,CF_2
1776181431.5462546,-0.03504278510808945,0.0102064935490489,0.45534902811050415,0.0011867168359458447,-0.0006239297799766064,0.09226951003074646,-0.9957332015037537,0.0006729682208970189,-0.037,0.011,0.482,0.001383770608975631,-0.002767541217951262,-0.08302623653853786,0.9965425580178477,0.076,-0.05,-0.708,-0.324,0.534,9.325,-0.0010814262786880136,0.0004108893917873502,0.30858248472213745,-0.078,0.026,-0.415,0.766323338673991,0.8271000228885328,0.7998779278248265,0.8205996795605401,3.246,True,True,False,False,False,CF_2
34099,-0.03446738049387932,0.009864598512649536,0.4500049650669098,-0.0013713166117668152,0.006897535640746355,0.09327736496925354,-0.9956153035163879,0.000649889640044421,-0.035,0.01,0.46,-0.001383770608975631,-0.004151311826926893,-0.08856131897444039,0.9960611148772572,0.072,-0.048,-0.672,-0.061,-0.553,12.248,-0.0010814262786880136,0.0004108893917873502,0.30858248472213745,-0.175,0.062,-0.31,0.769893949797818,0.8311436636911574,0.8252536812390325,0.8347447928587778,3.246,True,True,False,False,False,CF_2
34115,-0.03310628980398178,0.00933567900210619,0.43979066610336304,0.0007506508263759315,0.00475731585174799,0.09646862000226974,-0.9953243732452393,0.0004674864758271724,-0.033,0.009,0.442,-0.004151311826926893,-0.004151311826926893,-0.09409640141034291,0.9955457801938868,0.072,-0.048,-0.672,-0.061,-0.553,12.248,-0.0006173611618578434,0.00023463442630600184,0.3049011528491974,-0.175,0.062,-0.31,0.769893949797818,0.8311436636911574,0.8252536812390325,0.8347447928587778,3.246,True,True,False,False,False,CF_2
1776181431.5876095,-0.03218156471848488,0.008664676919579506,0.4290521442890167,0.0048432545736432076,0.006777253933250904,0.0971083790063858,-0.9952390193939209,0.0005638619186356664,-0.033,0.009,0.442,-0.004151311826926893,-0.004151311826926893,-0.09409640141034291,0.9955457801938868,0.072,-0.048,-0.672,-0.061,-0.553,12.248,-0.0006173611618578434,0.00023463442630600184,0.3049011528491974,-0.175,0.062,-0.31,0.769893949797818,0.8311436636911574,0.8252536812390325,0.8347447928587778,3.246,True,True,False,False,False,CF_2
34145,-0.03127506375312805,0.008031629025936127,0.4187164008617401,0.004175956826657057,0.0020444837864488363,0.10017474740743637,-0.9949589967727661,0.0006657631602138281,-0.031,0.008,0.423,-0.005535082435902524,-0.005535082435902524,-0.09686394262829418,0.9952668498163486,0.072,-0.048,-0.672,-0.061,-0.553,12.248,-0.0006173611618578434,0.00023463442630600184,0.3049011528491974,-0.175,0.062,-0.31,0.769893949797818,0.8311436636911574,0.8252536812390325,0.8347447928587778,3.246,True,True,False,False,False,CF_2
1776181431.622501,-0.030290525406599045,0.007471329532563686,0.4088079035282135,-0.0013607952278107405,0.0020076336804777384,0.1032136082649231,-0.9946563243865967,0.0006754464702680707,-0.031,0.008,0.423,-0.005535082435902524,-0.005535082435902524,-0.09686394262829418,0.9952668498163486,0.066,-0.042,-0.597,-0.507,0.63,10.374,-0.00026382715441286564,0.00010041594214271754,0.3020971119403839,-0.024,0.018,-0.221,0.7888303959716182,0.840161745632105,0.8099641412985428,0.8195162890058747,3.246,True,True,False,False,False,CF_2
1776181431.637613,-0.02923331782221794,0.00701455632224679,0.3993567228317261,0.005780491512268782,0.00851676519960165,0.10246840119361877,-0.994683027267456,0.000546972150914371,-0.029,0.006,0.404,-0.005535082435902524,-0.005535082435902524,-0.10101525445522107,0.9948540818090874,0.066,-0.042,-0.597,-0.507,0.63,10.374,-0.00026382715441286564,0.00010041594214271754,0.3020971119403839,-0.024,0.018,-0.221,0.7888303959716182,0.840161745632105,0.8099641412985428,0.8195162890058747,3.246,True,True,False,False,False,CF_2
1776181431.6548553,-0.028189169242978096,0.006641422398388386,0.39019957184791565,0.002340853912755847,0.007926098071038723,0.10525491088628769,-0.9944109916687012,0.00043977005407214165,-0.029,0.006,0.404,-0.005535082435902524,-0.005535082435902524,-0.10101525445522107,0.9948540818090874,0.066,-0.042,-0.597,-0.507,0.63,10.374,-0.00026382715441286564,0.00010041594214271754,0.3020971119403839,-0.024,0.018,-0.221,0.7888303959716182,0.840161745632105,0.8099641412985428,0.8195162890058747,3.246,True,True,False,False,False,CF_2
34200,-0.0277737844735384,0.006470744032412767,0.3856338858604431,-0.0003416631370782852,-0.0018278646748512983,0.10691986232995987,-0.9942659139633179,0.00044698419515043497,-0.029,0.006,0.404,-0.005535082435902524,-0.005535082435902524,-0.10101525445522107,0.9948540818090874,0.06,-0.036,-0.563,-0.335,0.192,11.024,-0.00026382715441286564,0.00010041594214271754,0.3020971119403839,0.05,-0.034,-0.139,0.7901884489204242,0.8286564431219959,0.8244907301441977,0.838651102464332,3.156,True,True,False,False,False,CF_2
1776181431.6799443,-0.027015723288059235,0.005982968956232071,0.37650662660598755,0.004267285577952862,0.008594384416937828,0.10588984936475754,-0.9943316578865051,0.0005599312717095017,-0.027,0.006,0.385,-0.004151311826926893,-0.005535082435902524,-0.10378279567317232,0.9945759200758905,0.06,-0.036,-0.563,-0.335,0.192,11.024,-8.422580867772922e-05,3.2238749554380774e-05,0.30066975951194763,0.05,-0.034,-0.139,0.7901884489204242,0.8286564431219959,0.8244907301441977,0.838651102464332,3.156,True,True,False,False,False,CF_2
34235,-0.026362355798482895,0.0056267003528773785,0.36756905913352966,0.003057158086448908,0.0008387709385715425,0.1071268767118454,-0.9942402839660645,0.0006785211153328419,-0.026,0.005,0.375,-0.004151311826926893,-0.005535082435902524,-0.10516656628214796,0.9944305520291329,0.06,-0.036,-0.563,-0.335,0.192,11.024,-8.422580867772922e-05,3.2238749554380774e-05,0.30066975951194763,0.05,-0.034,-0.139,0.7901884489204242,0.8286564431219959,0.8244907301441977,0.838651102464332,3.156,True,True,False,False,False,CF_2
34252,-0.025418665260076523,0.005421213805675507,0.3595576286315918,0.005140942521393299,0.0066945175640285015,0.10690529644489288,-0.9942334294319153,0.0005679974565282464,-0.026,0.005,0.375,-0.004151311826926893,-0.005535082435902524,-0.10516656628214796,0.9944305520291329,0.052,-0.027,-0.503,-0.006,-0.188,11.497,-2.4064696845016442e-05,9.341901204606984e-06,0.3001922369003296,-0.017,0.005,-0.055,0.8029602502479591,0.8435950255588617,0.8235751888303959,0.8228122377355611,3.156,True,True,False,False,False,CF_2
1776181431.729668,-0.024580499157309532,0.005170266143977642,0.35183006525039673,0.0005378847126848996,0.007131533697247505,0.10860344022512436,-0.9940595030784607,0.00044218587572686374,-0.025,0.005,0.359,-0.004151311826926893,-0.005535082435902524,-0.10655033689112359,0.9942832369002966,0.052,-0.027,-0.503,-0.006,-0.188,11.497,-2.4064696845016442e-05,9.341901204606984e-06,0.3001922369003296,-0.017,0.005,-0.055,0.8029602502479591,0.8435950255588617,0.8235751888303959,0.8228122377355611,3.156,True,True,False,False,False,CF_2
1776181431.7459805,-0.023967470973730087,0.004957710858434439,0.3439371585845947,0.004261780064553022,0.007441610097885132,0.10784409940242767,-0.9941308498382568,0.0005501387058757246,-0.025,0.005,0.359,-0.004151311826926893,-0.005535082435902524,-0.10655033689112359,0.9942832369002966,0.052,-0.027,-0.503,-0.006,-0.188,11.497,-2.4064696845016442e-05,9.341901204606984e-06,0.3001922369003296,-0.017,0.005,-0.055,0.8029602502479591,0.8435950255588617,0.8235751888303959,0.8228122377355611,3.156,True,True,False,False,False,CF_2
1776181431.763042,-0.02321796491742134,0.004815051332116127,0.33695676922798157,0.0006559070898219943,0.00796316284686327,0.10844025015830994,-0.9940709471702576,0.0004555110936053097,-0.023,0.004,0.344,-0.004151311826926893,-0.005535082435902524,-0.10655033689112359,0.9942832369002966,0.045,-0.019,-0.451,0.42,-0.188,11.844,-2.4064696845016442e-05,9.341901204606984e-06,0.3001922369003296,-0.018,0.057,0.011,0.7938048371099412,0.8439002059967956,0.8415960936903945,0.8194247348744945,3.156,True,True,False,False,False,CF_2
1776181431.7800605,-0.022723110392689705,0.004661257844418287,0.3296342194080353,0.0007716750260442495,0.00228537293151021,0.10886385291814804,-0.9940537810325623,0.0005877497023902833,-0.023,0.004,0.344,-0.004151311826926893,-0.005535082435902524,-0.10655033689112359,0.9942832369002966,0.045,-0.019,-0.451,0.42,-0.188,11.844,-1.2131465609854786e-06,8.064873782132054e-07,0.3000149726867676,-0.018,0.057,0.011,0.7938048371099412,0.8439002059967956,0.8415960936903945,0.8194247348744945,3.156,True,True,False,False,False,CF_2
34326,-0.022420868277549744,0.004606076516211033,0.32622775435447693,0.00019347791385371238,0.002226033015176654,0.10875608772039413,-0.9940659999847412,0.0005875399801880121,-0.022,0.004,0.331,-0.004151311826926893,-0.006918853044878155,-0.10655033689112359,0.9942745706247581,0.045,-0.019,-0.451,0.42,-0.188,11.844,-1.2131465609854786e-06,8.064873782132054e-07,0.3000149726867676,-0.018,0.057,0.011,0.7938048371099412,0.8439002059967956,0.8415960936903945,0.8194247348744945,3.156,True,True,False,False,False,CF_2
34348,-0.021832706406712532,0.004526793956756592,0.31984081864356995,0.0048978738486766815,0.00815143994987011,0.10676944255828857,-0.9942383766174316,0.00057074154028669,-0.022,0.004,0.331,-0.004151311826926893,-0.006918853044878155,-0.10655033689112359,0.9942745706247581,0.037,-0.012,-0.366,0.146,0.481,10.732,-1.2131465609854786e-06,8.064873782132054e-07,0.3000149726867676,-0.009,-0.038,0.042,0.7938048371099412,0.8439002059967956,0.8415960936903945,0.8194247348744945,3.156,True,True,False,False,False,CF_2
34355,-0.021168701350688934,0.004528431687504053,0.31399649381637573,0.00032843355438672006,0.007889474742114544,0.10725878179073334,-0.994199812412262,0.0004383077612146735,-0.021,0.004,0.32,-0.004151311826926893,-0.005535082435902524,-0.10655033689112359,0.9942832369002966,0.037,-0.012,-0.366,0.146,0.481,10.732,5.453578637570899e-07,2.911894227963785e-07,0.30000266432762146,-0.009,-0.038,0.042,0.7929655909056229,0.8360112916762036,0.8368657969024186,0.8122072175173571,3.156,True,True,False,False,False,CF_2
1776181431.8384397,-0.020868966355919838,0.004398155491799116,0.30759140849113464,-0.0013192245969548821,0.0006966347573325038,0.10797207057476044,-0.994152843952179,0.0007163208210840821,-0.021,0.004,0.32,-0.004151311826926893,-0.005535082435902524,-0.10655033689112359,0.9942832369002966,0.037,-0.012,-0.366,0.146,0.481,10.732,5.453578637570899e-07,2.911894227963785e-07,0.30000266432762146,-0.009,-0.038,0.042,0.7929655909056229,0.8360112916762036,0.8368657969024186,0.8122072175173571,3.156,True,True,False,False,False,CF_2
1776181431.8546205,-0.02013210766017437,0.004601050168275833,0.30261531472206116,0.0006751124747097492,0.007381422445178032,0.10605093091726303,-0.9943331480026245,0.0004454105219338089,-0.02,0.004,0.31,-0.004151311826926893,-0.006918853044878155,-0.10516656628214796,0.9944218870374292,0.037,-0.012,-0.366,0.146,0.481,10.732,5.453578637570899e-07,2.911894227963785e-07,0.30000266432762146,-0.009,-0.038,0.042,0.7929655909056229,0.8360112916762036,0.8368657969024186,0.8122072175173571,3.156,True,True,False,False,False,CF_2
1776181431.8716655,-0.019701911136507988,0.004679113160818815,0.29744473099708557,0.0009768365416675806,0.005820439662784338,0.10549463331699371,-0.9944024085998535,0.0004351978423073888,-0.02,0.004,0.31,-0.004151311826926893,-0.006918853044878155,-0.10516656628214796,0.9944218870374292,0.03,-0.006,-0.319,-0.509,0.256,10.95,-2.059159483550066e-12,-4.910949576684975e-13,0.2999999523162842,-0.025,-0.058,0.088,0.794567788204776,0.8245670252536812,0.8361791409170672,0.8109864957656214,3.156,True,True,False,False,False,CF_2
1776181431.87967,-0.01935272477567196,0.0047700777649879456,0.2951968312263489,-0.0013566316338256001,0.0032032206654548645,0.10554931312799454,-0.9944079518318176,0.00031871622195467353,-0.019,0.004,0.299,-0.004151311826926893,-0.005535082435902524,-0.10378279567317232,0.9945759200758905,0.03,-0.006,-0.319,-0.509,0.256,10.95,-2.059159483550066e-12,-4.910949576684975e-13,0.2999999523162842,-0.025,-0.058,0.088,0.794567788204776,0.8245670252536812,0.8361791409170672,0.8109864957656214,3.156,True,True,False,False,False,CF_2
1776181431.8956857,-0.019089723005890846,0.004827115684747696,0.2902218997478485,-0.0003847191692329943,0.0052695139311254025,0.10440059006214142,-0.9945213198661804,0.00042860954999923706,-0.019,0.004,0.299,-0.004151311826926893,-0.005535082435902524,-0.10378279567317232,0.9945759200758905,0.03,-0.006,-0.319,-0.509,0.256,10.95,-2.059159483550066e-12,-4.910949576684975e-13,0.2999999523162842,-0.025,-0.058,0.088,0.794567788204776,0.8245670252536812,0.8361791409170672,0.8109864957656214,3.156,True,True,False,False,False,CF_2
34448,-0.01859145797789097,0.00503931287676096,0.2860884368419647,-0.0008613532409071922,-9.021697042044252e-05,0.10431338846683502,-0.9945441484451294,0.00030474993400275707,-0.019,0.004,0.291,-0.002767541217951262,-0.004151311826926893,-0.10378279567317232,0.9945874715921085,0.025,0.0,-0.267,-0.196,0.025,10.764,-2.059159483550066e-12,-4.910949576684975e-13,0.2999999523162842,0.004,-0.228,0.051,0.794567788204776,0.8245670252536812,0.8361791409170672,0.8109864957656214,3.156,True,True,False,False,False,CF_2
1776181431.929543,-0.01843312941491604,0.00509290536865592,0.2815393805503845,0.002835699589923024,0.0016995631158351898,0.1026669442653656,-0.9947103261947632,0.0005603678291663527,-0.019,0.004,0.291,-0.002767541217951262,-0.004151311826926893,-0.10378279567317232,0.9945874715921085,0.025,0.0,-0.267,-0.196,0.025,10.764,0.14533646404743195,-4.4646731058077284e-20,0.5506430268287659,0.004,-0.228,0.051,0.8607766842145419,0.8995651178759442,0.9225757228961624,0.8393835355153735,3.156,True,True,False,False,False,CF_2
1776181431.9460921,-0.017909083515405655,0.005339851602911949,0.2782380282878876,-0.0003537729207891971,-0.0038323025219142437,0.10324713587760925,-0.994648277759552,0.0004458425391931087,-0.018,0.004,0.284,-0.002767541217951262,0.0,-0.1023990250641967,0.9947395540449314,0.025,0.0,-0.267,-0.196,0.025,10.764,0.14533646404743195,-4.4646731058077284e-20,0.5506430268287659,0.004,-0.228,0.051,0.8607766842145419,0.8995651178759442,0.9225757228961624,0.8393835355153735,3.156,True,True,False,False,False,CF_2
1776181431.9622061,-0.017276102676987648,0.005602624267339706,0.2755369246006012,-0.0009103344636969268,-0.014814330264925957,0.10365907102823257,-0.9945021867752075,0.0003266303683631122,-0.018,0.004,0.284,-0.002767541217951262,0.0,-0.1023990250641967,0.9947395540449314,0.025,0.0,-0.267,-0.196,0.025,10.764,0.14533646404743195,-4.4646731058077284e-20,0.5506430268287659,0.004,-0.228,0.051,0.8607766842145419,0.8995651178759442,0.9225757228961624,0.8393835355153735,3.156,True,True,False,False,False,CF_2
34499,-0.017103862017393112,0.0056548588909208775,0.273951917886734,0.0013606962747871876,-0.015704244375228882,0.10299582034349442,-0.9945569038391113,0.0004515980544965714,-0.018,0.004,0.284,-0.002767541217951262,0.0,-0.1023990250641967,0.9947395540449314,0.025,0.004,-0.185,-0.027,0.102,11.771,0.14533646404743195,-4.4646731058077284e-20,0.5506430268287659,-0.199,-0.945,0.033,0.9161211566338597,0.9342946517128252,0.961348897535668,0.9211718928816662,3.156,True,True,False,False,False,CF_2
34505,-0.016552217304706573,0.005873890593647957,0.2717131972312927,0.0008197106653824449,-0.032727207988500595,0.10342516750097275,-0.994098424911499,0.0005803203675895929,-0.017,0.004,0.277,-0.004151311826926893,0.009686394262829417,-0.1023990250641967,0.9946875791132624,0.025,0.004,-0.185,-0.027,0.102,11.771,0.23360244929790497,-1.2817529084571619e-26,0.6662113070487976,-0.199,-0.945,0.033,0.9161211566338597,0.9342946517128252,0.961348897535668,0.9211718928816662,3.156,True,True,False,False,False,CF_2
1776181432.0042083,-0.01559862494468689,0.006130690686404705,0.27054089307785034,0.006598226726055145,-0.035289231687784195,0.10164454579353333,-0.9941728711128235,0.000576743099372834,-0.016,0.005,0.273,-0.005535082435902524,0.02629164157053699,-0.1023990250641967,0.9943804865904481,0.025,0.004,-0.185,-0.027,0.102,11.771,0.23360244929790497,-1.2817529084571619e-26,0.6662113070487976,-0.199,-0.945,0.033,0.9161211566338597,0.9342946517128252,0.961348897535668,0.9211718928816662,3.156,True,True,False,False,False,CF_2
34552,-0.014410297386348248,0.006446282844990492,0.2700504958629608,0.00806615874171257,-0.04524124413728714,0.10089382529258728,-0.9938353896141052,0.0005505670560523868,-0.016,0.005,0.273,-0.005535082435902524,0.02629164157053699,-0.1023990250641967,0.9943804865904481,0.051,0.008,-0.06,0.569,0.091,12.889,0.338672935962677,-2.928357748525052e-37,0.6999730467796326,-0.288,-1.226,0.061,0.9037613488975357,0.9591668574044404,0.9694056610971237,0.9505149919890135,3.156,True,True,False,False,False,CF_2
1776181432.0378673,-0.012840908952057362,0.006805258337408304,0.2706710696220398,0.004917662590742111,-0.05614111199975014,0.10078822821378708,-0.9933105707168579,0.00045192628749646246,-0.015,0.005,0.27,-0.008302623653853786,0.044280659487220195,-0.10101525445522107,0.9938642804745456,0.051,0.008,-0.06,0.569,0.091,12.889,0.338672935962677,-2.928357748525052e-37,0.6999730467796326,-0.288,-1.226,0.061,0.9037613488975357,0.9591668574044404,0.9694056610971237,0.9505149919890135,3.156,True,True,False,False,False,CF_2
1776181432.05392,-0.010892418213188648,0.007139912340790033,0.27202585339546204,0.00580599345266819,-0.06621754914522171,0.09938237071037292,-0.9928266406059265,0.000457604939583689,-0.015,0.005,0.27,-0.008302623653853786,0.044280659487220195,-0.10101525445522107,0.9938642804745456,0.051,0.008,-0.06,0.569,0.091,12.889,0.338672935962677,-2.928357748525052e-37,0.6999730467796326,-0.288,-1.226,0.061,0.9037613488975357,0.9591668574044404,0.9694056610971237,0.9505149919890135,3.156,True,True,False,False,False,CF_2
34599,-0.009701144881546497,0.007361218333244324,0.2729320526123047,0.006305487360805273,-0.07072827219963074,0.09889811277389526,-0.992560863494873,0.00043683405965566635,-0.012,0.006,0.271,-0.009686394262829417,0.06365344801287903,-0.09963148384624543,0.9929390614478071,0.125,0.015,0.117,2.443,-0.499,13.718,0.338672935962677,-2.928357748525052e-37,0.6999730467796326,-0.204,-1.153,0.165,0.9180285343709468,0.9778133821622034,0.9416037232013428,0.9666132600900282,3.156,True,True,False,False,False,CF_2
1776181432.0795417,-0.007141340058296919,0.00771715072914958,0.275351881980896,0.0021557738073170185,-0.0787154957652092,0.09817630052566528,-0.9920487403869629,0.0005712257116101682,-0.012,0.006,0.271,-0.009686394262829417,0.06365344801287903,-0.09963148384624543,0.9929390614478071,0.125,0.015,0.117,2.443,-0.499,13.718,0.41432425379753113,0.0,0.7000012397766113,-0.204,-1.153,0.165,0.9180285343709468,0.9778133821622034,0.9416037232013428,0.9666132600900282,3.156,True,True,False,False,False,CF_2
1776181432.096643,-0.004037532489746809,0.00803861953318119,0.2784395217895508,0.002269317163154483,-0.09588884562253952,0.09601030498743057,-0.990748405456543,0.0006844040472060442,-0.009,0.007,0.273,-0.011070164871805049,0.07887492471161096,-0.09686394262829418,0.9921056265942408,0.125,0.015,0.117,2.443,-0.499,13.718,0.41432425379753113,0.0,0.7000012397766113,-0.204,-1.153,0.165,0.9180285343709468,0.9778133821622034,0.9416037232013428,0.9666132600900282,3.156,True,True,False,False,False,CF_2
1776181432.1126645,1.7108273823396303e-05,0.00854097306728363,0.2827894985675812,0.005815522279590368,-0.10471748560667038,0.09240445494651794,-0.9901827573776245,0.0005652488907799125,-0.009,0.007,0.273,-0.011070164871805049,0.07887492471161096,-0.09686394262829418,0.9921056265942408,0.226,0.019,0.265,2.831,-0.247,13.118,0.41432425379753113,0.0,0.7000012397766113,0.005,-1.047,0.395,0.8623178454261082,0.9940947585259785,0.8685740444037537,0.9591210803387503,3.156,True,True,False,False,False,CF_2
1776181432.1298158,0.0047821965999901295,0.009006225503981113,0.2881051003932953,0.005046357400715351,-0.10609819740056992,0.08836964517831802,-0.9904082417488098,0.00044805952347815037,-0.003,0.007,0.28,-0.011070164871805049,0.09548017201931853,-0.09271263080136728,0.9910425602822321,0.226,0.019,0.265,2.831,-0.247,13.118,0.4856902062892914,0.0,0.7000010013580322,0.005,-1.047,0.395,0.8623178454261082,0.9940947585259785,0.8685740444037537,0.9591210803387503,3.156,True,True,False,False,False,CF_2
1776181432.1453714,0.010027752257883549,0.00937171746045351,0.29350438714027405,0.004869104828685522,-0.12034730613231659,0.08386527746915817,-0.9891710877418518,0.0005807275883853436,0.005,0.008,0.289,-0.008302623653853786,0.11070164871805048,-0.08579377775648912,0.9901089026515406,0.226,0.019,0.265,2.831,-0.247,13.118,0.4856902062892914,0.0,0.7000010013580322,0.005,-1.047,0.395,0.8623178454261082,0.9940947585259785,0.8685740444037537,0.9591210803387503,3.156,True,True,False,False,False,CF_2
34698,0.012881140224635601,0.009609060361981392,0.2963699400424957,-1.5856023310334422e-05,-0.12217561900615692,0.08237878233194351,-0.9890838861465454,0.0006643192027695477,0.005,0.008,0.289,-0.008302623653853786,0.11070164871805048,-0.08579377775648912,0.9901089026515406,0.368,0.02,0.385,2.506,0.5,11.532,0.4856902062892914,0.0,0.7000010013580322,-0.125,-0.789,0.614,0.8623178454261082,0.9940947585259785,0.8685740444037537,0.9591210803387503,3.156,True,True,False,False,False,CF_2
34715,0.01943751983344555,0.010046865791082382,0.30310776829719543,0.0005124573362991214,-0.12965984642505646,0.07702571153640747,-0.9885622262954712,0.0006873882957734168,0.016,0.009,0.3,-0.006918853044878155,0.12315558419883116,-0.07749115410263534,0.989333084754083,0.368,0.02,0.385,2.506,0.5,11.532,0.5003631114959717,0.0021390130277723074,0.7000012397766113,-0.125,-0.789,0.614,0.8972304875257496,0.8747997253376059,0.9119401846341649,0.9336842908369574,3.045,True,True,False,False,False,CF_2
1776181432.1877515,0.02671758271753788,0.010494543239474297,0.3102681040763855,0.003855055198073387,-0.1337028294801712,0.07052846252918243,-0.9885011911392212,0.0007896149181760848,0.016,0.009,0.3,-0.006918853044878155,0.12315558419883116,-0.07749115410263534,0.989333084754083,0.368,0.02,0.385,2.506,0.5,11.532,0.5003631114959717,0.0021390130277723074,0.7000012397766113,-0.125,-0.789,0.614,0.8972304875257496,0.8747997253376059,0.9119401846341649,0.9336842908369574,3.045,True,True,False,False,False,CF_2
1776181432.2047722,0.03486943244934082,0.010972464457154274,0.3181750476360321,0.004104938358068466,-0.1362457126379013,0.06512674689292908,-0.9885236024856567,0.0007707816548645496,0.016,0.009,0.3,-0.006918853044878155,0.12315558419883116,-0.07749115410263534,0.989333084754083,0.368,0.02,0.385,2.506,0.5,11.532,0.5003631114959717,0.0021390130277723074,0.7000012397766113,-0.125,-0.789,0.614,0.8972304875257496,0.8747997253376059,0.9119401846341649,0.9336842908369574,3.045,True,True,False,False,False,CF_2
1776181432.221457,0.04404096305370331,0.011506346054375172,0.32710567116737366,-9.992817649617791e-05,-0.13788819313049316,0.060416340827941895,-0.988603413105011,0.0006927369977347553,0.029,0.01,0.312,-0.006918853044878155,0.13145820785268494,-0.06780475983980593,0.988975926705888,0.516,0.017,0.466,2.994,0.599,11.314,0.5002086162567139,0.01279202476143837,0.7000012397766113,-0.031,-0.088,0.675,0.8324559395742733,0.8939192797741665,0.8398260471503777,0.9369039444571603,3.045,True,True,False,False,False,CF_2
1776181432.2385685,0.0538700707256794,0.011947317980229855,0.33614858984947205,0.008280985988676548,-0.13521410524845123,0.05288016051054001,-0.9893696308135986,0.0006813820800743997,0.042,0.01,0.324,-0.005535082435902524,0.13145820785268494,-0.0581183655769765,0.9896011105658931,0.516,0.017,0.466,2.994,0.599,11.314,0.5002086162567139,0.01279202476143837,0.7000012397766113,-0.031,-0.088,0.675,0.8324559395742733,0.8939192797741665,0.8398260471503777,0.9369039444571603,3.045,True,True,False,False,False,CF_2
1776181432.2549012,0.06438761949539185,0.012458473443984985,0.3456352651119232,0.0029050870798528194,-0.13111096620559692,0.0489877313375473,-0.9901523590087891,0.0007867958047427237,0.042,0.01,0.324,-0.005535082435902524,0.13145820785268494,-0.0581183655769765,0.9896011105658931,0.516,0.017,0.466,2.994,0.599,11.314,0.5002086162567139,0.01279202476143837,0.7000012397766113,-0.031,-0.088,0.675,0.8324559395742733,0.8939192797741665,0.8398260471503777,0.9369039444571603,3.045,True,True,False,False,False,CF_2
34802,0.06998743116855621,0.01275005005300045,0.35060054063796997,0.003099191701039672,-0.1268351823091507,0.04613429307937622,-0.9908456206321716,0.0007911319262348115,0.042,0.01,0.324,-0.005535082435902524,0.13145820785268494,-0.0581183655769765,0.9896011105658931,0.659,0.018,0.547,2.961,-0.566,11.789,0.49925699830055237,0.02858613058924675,0.7000006437301636,0.021,0.717,0.608,0.8011291676203556,0.9135271229114214,0.8405584802014191,0.8658274204623484,3.045,True,True,False,False,False,CF_2
1776181432.279805,0.08165445178747177,0.013221398927271366,0.36095646023750305,0.0016030750703066587,-0.11962319910526276,0.041629768908023834,-0.9919449090957642,0.0007931100553832948,0.06,0.011,0.34,-0.005535082435902524,0.1259231254167824,-0.04843197131414709,0.9908415985929955,0.659,0.018,0.547,2.961,-0.566,11.789,0.49925699830055237,0.02858613058924675,0.7000006437301636,0.021,0.717,0.608,0.8011291676203556,0.9135271229114214,0.8405584802014191,0.8658274204623484,3.045,True,True,False,False,False,CF_2
1776181432.2956865,0.09398192912340164,0.013797872699797153,0.3715822696685791,0.00291395909152925,-0.11225581914186478,0.0364106260240078,-0.9930077791213989,0.0008081398555077612,0.081,0.012,0.359,-0.004151311826926893,0.11346918993600175,-0.0401293476602933,0.992722088502992,0.659,0.018,0.547,2.961,-0.566,11.789,0.49925699830055237,0.02858613058924675,0.7000006437301636,0.021,0.717,0.608,0.8011291676203556,0.9135271229114214,0.8405584802014191,0.8658274204623484,3.045,True,True,False,False,False,CF_2
34852,0.10687796026468277,0.014398906379938126,0.38257932662963867,0.0026272006798535585,-0.10335032641887665,0.03159439563751221,-0.9941396713256836,0.0008013276383280754,0.081,0.012,0.359,-0.004151311826926893,0.11346918993600175,-0.0401293476602933,0.992722088502992,0.793,0.02,0.617,1.588,0.301,10.727,0.49814414978027344,0.041349850594997406,0.7000011801719666,-0.118,1.068,0.539,0.7537651636530098,0.8390783550774396,0.8220340276188296,0.861326009002823,3.045,True,True,False,False,False,CF_2
1776181432.3297703,0.12021263688802719,0.015027975663542747,0.3938628137111664,0.0041318172588944435,-0.09302685409784317,0.027194123715162277,-0.9952836632728577,0.0008116287644952536,0.105,0.013,0.378,-0.005535082435902524,0.0982477132372698,-0.031826724006439516,0.9946375266121287,0.793,0.02,0.617,1.588,0.301,10.727,0.49814414978027344,0.041349850594997406,0.7000011801719666,-0.118,1.068,0.539,0.7537651636530098,0.8390783550774396,0.8220340276188296,0.861326009002823,3.045,True,True,False,False,False,CF_2
1776181432.346438,0.13404014706611633,0.01574324630200863,0.4054645299911499,0.0053284019231796265,-0.08357109874486923,0.02250487543642521,-0.9962334036827087,0.0008141976431943476,0.105,0.013,0.378,-0.005535082435902524,0.0982477132372698,-0.031826724006439516,0.9946375266121287,0.793,0.02,0.617,1.588,0.301,10.727,0.49814414978027344,0.041349850594997406,0.7000011801719666,-0.118,1.068,0.539,0.7537651636530098,0.8390783550774396,0.8220340276188296,0.861326009002823,3.045,True,True,False,False,False,CF_2
34899,0.14102792739868164,0.01611196994781494,0.4112876057624817,0.004839442670345306,-0.07912322878837585,0.020956844091415405,-0.9966328144073486,0.0008067950839176774,0.129,0.014,0.399,-0.005535082435902524,0.0802586953205866,-0.023524100352585727,0.9964810692584514,0.887,0.027,0.665,1.715,-0.149,10.466,0.49814414978027344,0.041349850594997406,0.7000011801719666,-0.014,1.326,0.462,0.7845578698405432,0.7745937285420005,0.8501258869306477,0.7666895551995118,3.045,True,True,False,False,False,CF_2
34902,0.15527167916297913,0.01688128523528576,0.42308491468429565,0.0033851873595267534,-0.06762687861919403,0.017339449375867844,-0.997554361820221,0.000797994202002883,0.129,0.014,0.399,-0.005535082435902524,0.0802586953205866,-0.023524100352585727,0.9964810692584514,0.887,0.027,0.665,1.715,-0.149,10.466,0.49755096435546875,0.048234276473522186,0.7000012397766113,-0.014,1.326,0.462,0.7845578698405432,0.7745937285420005,0.8501258869306477,0.7666895551995118,3.045,True,True,False,False,False,CF_2
1776181432.3885925,0.16973069310188293,0.017656853422522545,0.43499571084976196,0.00392536073923111,-0.05497419089078903,0.013229964300990105,-0.9983924031257629,0.0007980511290952563,0.156,0.015,0.419,-0.005535082435902524,0.060885906794927766,-0.01660524730770757,0.9979912499506381,0.887,0.027,0.665,1.715,-0.149,10.466,0.49755096435546875,0.048234276473522186,0.7000012397766113,-0.014,1.326,0.462,0.7845578698405432,0.7745937285420005,0.8501258869306477,0.7666895551995118,3.045,True,True,False,False,False,CF_2
