t,mx,my,mz,mqx,mqy,mqz,mqw,m_error,ex,ey,ez,eqx,eqy,eqz,eqw,vx,vy,vz,ax,ay,az,sx,sy,sz,p,q,r,m1,m2,m3,m4,vbat,armed,flying,tumbled,locked,crashed,agent_id
1776883623.0201805,-0.009592610411345959,-0.02683875896036625,0.7503914833068848,-0.0003097937151324004,0.004868875723332167,0.09926356375217438,0.995049238204956,0.0006174803711473942,-0.008,-0.026,0.75,0.0,0.001383770608975631,0.0982477132372698,0.9951610281871718,0.055,-0.001,-0.028,-0.046,0.798,9.273,0.01496434211730957,-0.028051063418388367,0.7000001668930054,0.004,0.025,0.091,0.6507515068284123,0.7838254367895018,0.7094834821087969,0.7785610742351415,3.494,True,True,False,False,False,CF_2
1776883623.0201805,-0.3598354458808899,-0.08173537999391556,0.7485445141792297,0.010263004340231419,0.00010174104681937024,0.1539725661277771,-0.9880219101905823,0.0007357744034379721,-0.36,-0.079,0.75,-0.005535082435902524,0.0,-0.15359853759629505,0.9881178331103571,0.028,0.014,-0.014,-0.259,1.131,10.036,-0.360792875289917,-0.052221834659576416,0.7000020146369934,0.042,0.009,-0.007,0.7515831235217822,0.6811932555123217,0.8084992751964599,0.6561684596017395,3.51,True,True,False,False,False,CF_3
1776883623.0367477,-0.009303205646574497,-0.026883672922849655,0.7502627968788147,-0.00039136537816375494,0.004937533754855394,0.10006848722696304,0.9949682354927063,0.0006205103709362447,-0.008,-0.026,0.75,0.0,0.001383770608975631,0.0982477132372698,0.9951610281871718,0.055,-0.001,-0.028,-0.046,0.798,9.273,0.01496434211730957,-0.028051063418388367,0.7000001668930054,0.004,0.025,0.091,0.646845197222858,0.782207980468452,0.716762035553521,0.7738765545128558,3.494,True,True,False,False,False,CF_2
1776883623.0367477,-0.3594658076763153,-0.08194221556186676,0.7481024861335754,0.009980017319321632,0.0006797150708734989,0.15358825027942657,-0.9880843758583069,0.0007335343398153782,-0.36,-0.079,0.75,-0.005535082435902524,0.0,-0.15359853759629505,0.9881178331103571,0.028,0.014,-0.03,0.618,0.287,8.665,-0.360792875289917,-0.052221834659576416,0.7000020146369934,0.043,-0.048,0.008,0.7515831235217822,0.6811932555123217,0.8084992751964599,0.6561684596017395,3.51,True,True,False,False,False,CF_3
1776883623.051905,-0.009071439504623413,-0.02692795917391777,0.7500759363174438,-0.0003756245132535696,0.0043105473741889,0.10085306316614151,0.9948920011520386,0.000620168459136039,-0.008,-0.026,0.75,0.0,0.001383770608975631,0.0982477132372698,0.9951610281871718,0.055,-0.001,-0.028,-0.046,0.798,9.273,0.01496434211730957,-0.028051063418388367,0.7000001668930054,0.004,0.025,0.091,0.646845197222858,0.782207980468452,0.716762035553521,0.7738765545128558,3.494,True,True,False,False,False,CF_2
1776883623.051905,-0.35903337597846985,-0.08221909403800964,0.7475652098655701,0.011168224737048149,0.0018697241321206093,0.15407390892505646,-0.9879944920539856,0.0007331235683523118,-0.359,-0.08,0.748,-0.006918853044878155,-0.001383770608975631,-0.15359853759629505,0.9881081438282576,0.028,0.014,-0.03,0.618,0.287,8.665,-0.360792875289917,-0.052221834659576416,0.7000020146369934,0.043,-0.048,0.008,0.7496147096971084,0.6890363927672236,0.8180056458381018,0.6553597314412146,3.51,True,True,False,False,False,CF_3
1776883623.0678551,-0.008872210048139095,-0.026966102421283722,0.7499001026153564,-2.186298297601752e-05,0.0038132185582071543,0.10162957012653351,0.9948150515556335,0.0006258368957787752,-0.007,-0.026,0.749,0.0,0.0,0.09963148384624543,0.9950244054426983,0.055,-0.001,-0.028,-0.046,0.798,9.273,0.01496434211730957,-0.028051063418388367,0.7000001668930054,0.004,0.025,0.091,0.646845197222858,0.782207980468452,0.716762035553521,0.7738765545128558,3.494,True,True,False,False,False,CF_2
1776883623.0678551,-0.35861125588417053,-0.08248191326856613,0.7470395565032959,0.011121087707579136,0.0024148146621882915,0.15373924374580383,-0.9880459904670715,0.0007445887313224375,-0.359,-0.08,0.748,-0.006918853044878155,-0.001383770608975631,-0.15359853759629505,0.9881081438282576,0.028,0.014,-0.03,0.618,0.287,8.665,-0.360792875289917,-0.052221834659576416,0.7000020146369934,0.043,-0.048,0.008,0.7496147096971084,0.6890363927672236,0.8180056458381018,0.6553597314412146,3.51,True,True,False,False,False,CF_3
1776883623.0834522,-0.008720193058252335,-0.027024846524000168,0.7497164607048035,0.0003157934406772256,0.0034248509909957647,0.10235104709863663,0.9947424530982971,0.000623158470261842,-0.007,-0.026,0.749,0.0,0.0,0.09963148384624543,0.9950244054426983,0.055,-0.001,-0.028,-0.046,0.798,9.273,0.01496434211730957,-0.028051063418388367,0.7000001668930054,0.004,0.025,0.091,0.646845197222858,0.782207980468452,0.716762035553521,0.7738765545128558,3.494,True,True,False,False,False,CF_2
1776883623.0834522,-0.35825949907302856,-0.08267636597156525,0.7465164065361023,0.011286284774541855,0.003645492484793067,0.15344053506851196,-0.9880867004394531,0.0007473552250303328,-0.359,-0.08,0.748,-0.006918853044878155,-0.001383770608975631,-0.15359853759629505,0.9881081438282576,0.028,0.014,-0.03,0.618,0.287,8.665,-0.360792875289917,-0.052221834659576416,0.7000020146369934,0.043,-0.048,0.008,0.7496147096971084,0.6890363927672236,0.8180056458381018,0.6553597314412146,3.51,True,True,False,False,False,CF_3
1776883623.098887,-0.008618139661848545,-0.027112988755106926,0.7495381832122803,5.627581413136795e-05,0.00321652228012681,0.1032663956284523,0.9946485757827759,0.0006271762540563941,-0.007,-0.026,0.749,0.0,0.0,0.09963148384624543,0.9950244054426983,0.046,-0.002,-0.044,0.277,-1.338,11.491,0.01496434211730957,-0.028051063418388367,0.7000001668930054,0.01,0.05,0.086,0.6333409628442817,0.7943541618982223,0.722743572137026,0.7789272907606622,3.494,True,True,False,False,False,CF_2
1776883623.098887,-0.3579564690589905,-0.08287803828716278,0.7460455894470215,0.01204927172511816,0.004838378168642521,0.15363577008247375,-0.9880422949790955,0.00076177908340469,-0.358,-0.081,0.746,-0.006918853044878155,-0.004151311826926893,-0.15359853759629505,0.9881003923341689,0.028,0.014,-0.03,0.618,0.287,8.665,-0.360792875289917,-0.052221834659576416,0.7000020146369934,0.043,-0.048,0.008,0.7496147096971084,0.6890363927672236,0.8180056458381018,0.6553597314412146,3.51,True,True,False,False,False,CF_3
1776883623.1144123,-0.008574426174163818,-0.027127791196107864,0.7494500279426575,0.00010723381274146959,0.0027400704566389322,0.10357809066772461,0.9946175813674927,0.0006265391712076962,-0.007,-0.027,0.749,0.0,-0.001383770608975631,0.1023990250641967,0.994742441461509,0.046,-0.002,-0.044,0.277,-1.338,11.491,0.01496434211730957,-0.028051063418388367,0.7000001668930054,0.01,0.05,0.086,0.6333409628442817,0.7943541618982223,0.722743572137026,0.7789272907606622,3.494,True,True,False,False,False,CF_2
1776883623.1144123,-0.35778510570526123,-0.08299057185649872,0.7458738684654236,0.012293948791921139,0.0053625148721039295,0.15392214059829712,-0.987991988658905,0.0007575434283353388,-0.358,-0.081,0.746,-0.006918853044878155,-0.004151311826926893,-0.15359853759629505,0.9881003923341689,0.025,0.017,-0.026,-0.574,1.466,10.232,-0.360792875289917,-0.052221834659576416,0.7000020146369934,-0.013,0.092,0.015,0.7496147096971084,0.6890363927672236,0.8180056458381018,0.6553597314412146,3.494,True,True,False,False,False,CF_3
1776883623.1300993,-0.00854544434696436,-0.02717537060379982,0.7492622137069702,0.0005696052685379982,0.0021944642066955566,0.10412847995758057,0.9945613741874695,0.000608945672865957,-0.007,-0.027,0.749,0.0,-0.001383770608975631,0.1023990250641967,0.994742441461509,0.046,-0.002,-0.044,0.277,-1.338,11.491,0.01496434211730957,-0.028051063418388367,0.7000001668930054,0.01,0.05,0.086,0.6333409628442817,0.7943541618982223,0.722743572137026,0.7789272907606622,3.483,True,True,False,False,False,CF_2
1776883623.1300993,-0.35743188858032227,-0.08322282880544662,0.7453779578208923,0.012044587172567844,0.005303228739649057,0.153540700674057,-0.9880547523498535,0.0007275444222614169,-0.358,-0.081,0.746,-0.006918853044878155,-0.004151311826926893,-0.15359853759629505,0.9881003923341689,0.025,0.017,-0.026,-0.574,1.466,10.232,-0.360792875289917,-0.052221834659576416,0.7000020146369934,-0.013,0.092,0.015,0.7640344853894865,0.684290836957351,0.8077515831235218,0.6580605783169299,3.494,True,True,False,False,False,CF_3
1776883623.1465416,-0.008577287197113037,-0.027213068678975105,0.7490803003311157,-0.0001627995225135237,0.0019715619273483753,0.10517838597297668,0.9944514036178589,0.0006184848607517779,-0.007,-0.027,0.749,0.0,-0.001383770608975631,0.1023990250641967,0.994742441461509,0.046,-0.002,-0.044,0.277,-1.338,11.491,0.01496434211730957,-0.028051063418388367,0.7000001668930054,0.01,0.05,0.086,0.6333409628442817,0.7943541618982223,0.722743572137026,0.7789272907606622,3.483,True,True,False,False,False,CF_2
1776883623.1465416,-0.3571748435497284,-0.08342685550451279,0.7449262142181396,0.011953990906476974,0.005804152227938175,0.15331768989562988,-0.9880875945091248,0.0007356069982051849,-0.357,-0.081,0.745,-0.008302623653853786,-0.005535082435902524,-0.15359853759629505,0.9880829512501315,0.025,0.017,-0.026,-0.574,1.466,10.232,-0.360792875289917,-0.052221834659576416,0.7000020146369934,-0.013,0.092,0.015,0.7640344853894865,0.684290836957351,0.8077515831235218,0.6580605783169299,3.494,True,True,False,False,False,CF_3
1776883623.1614254,-0.008619948290288448,-0.02727041207253933,0.748884379863739,-0.0003917109570465982,0.0017523295246064663,0.10611894726753235,0.9943519234657288,0.0006185872480273247,-0.006,-0.027,0.748,0.001383770608975631,-0.002767541217951262,0.10516656628214796,0.9944498072959396,0.036,-0.003,-0.037,0.011,0.481,8.706,0.01496434211730957,-0.028051063418388367,0.7000001668930054,-0.034,0.032,0.102,0.6607309071488517,0.7661707484550241,0.7246662088960097,0.7891508354314488,3.483,True,True,False,False,False,CF_2
1776883623.1614254,-0.35697057843208313,-0.08360880613327026,0.7444896101951599,0.012514865025877953,0.006127727217972279,0.15333297848701477,-0.9880763292312622,0.0007497529732063413,-0.357,-0.081,0.745,-0.008302623653853786,-0.005535082435902524,-0.15359853759629505,0.9880829512501315,0.025,0.017,-0.026,-0.574,1.466,10.232,-0.360792875289917,-0.052221834659576416,0.7000020146369934,-0.013,0.092,0.015,0.7640344853894865,0.684290836957351,0.8077515831235218,0.6580605783169299,3.494,True,True,False,False,False,CF_3
1776883623.1767623,-0.008730048313736916,-0.027360625565052032,0.7486622333526611,-0.0006114086136221886,0.002371156355366111,0.10690082609653473,0.9942666888237,0.0006197095499373972,-0.006,-0.027,0.748,0.001383770608975631,-0.002767541217951262,0.10516656628214796,0.9944498072959396,0.036,-0.003,-0.037,0.011,0.481,8.706,0.01496434211730957,-0.028051063418388367,0.7000001668930054,-0.034,0.032,0.102,0.6607309071488517,0.7661707484550241,0.7246662088960097,0.7891508354314488,3.483,True,True,False,False,False,CF_2
1776883623.1767623,-0.35673773288726807,-0.08375414460897446,0.7440990209579468,0.011907540261745453,0.006731860805302858,0.15251830220222473,-0.9882059693336487,0.0007552076131105423,-0.357,-0.081,0.745,-0.008302623653853786,-0.005535082435902524,-0.15359853759629505,0.9880829512501315,0.018,0.022,-0.028,-0.371,0.482,9.17,-0.360792875289917,-0.052221834659576416,0.7000020146369934,-0.01,0.108,0.036,0.7640344853894865,0.684290836957351,0.8077515831235218,0.6580605783169299,3.494,True,True,False,False,False,CF_3
1776883623.1923628,-0.008858582004904747,-0.027459993958473206,0.7484593987464905,-0.0007031665300019085,0.0028558478225022554,0.10766593366861343,0.9941827654838562,0.0006205218960531056,-0.006,-0.027,0.748,0.001383770608975631,-0.002767541217951262,0.10516656628214796,0.9944498072959396,0.036,-0.003,-0.037,0.011,0.481,8.706,0.01496434211730957,-0.028051063418388367,0.7000001668930054,-0.034,0.032,0.102,0.6607309071488517,0.7661707484550241,0.7246662088960097,0.7891508354314488,3.483,True,True,False,False,False,CF_2
1776883623.1923628,-0.35659801959991455,-0.08389677107334137,0.7436865568161011,0.011262757703661919,0.006204721052199602,0.15236036479473114,-0.98824143409729,0.0007460073684342206,-0.357,-0.081,0.745,-0.008302623653853786,-0.005535082435902524,-0.15359853759629505,0.9880829512501315,0.018,0.022,-0.028,-0.371,0.482,9.17,-0.360792875289917,-0.052221834659576416,0.7000020146369934,-0.01,0.108,0.036,0.7987335011825742,0.6709391927977416,0.7785763332570382,0.670771343556878,3.494,True,True,False,False,False,CF_3
1776883623.2079985,-0.009043678641319275,-0.02754124253988266,0.74822598695755,-0.0009257818455807865,0.00367353530600667,0.10837901383638382,0.994102418422699,0.0006295283092185855,-0.007,-0.027,0.747,0.0,-0.001383770608975631,0.10655033689112359,0.9943063465991202,0.036,-0.003,-0.037,0.011,0.481,8.706,0.01496434211730957,-0.028051063418388367,0.7000001668930054,-0.034,0.032,0.102,0.6607309071488517,0.7661707484550241,0.7246662088960097,0.7891508354314488,3.483,True,True,False,False,False,CF_2
1776883623.2079985,-0.35647040605545044,-0.08408045768737793,0.7432762384414673,0.011318431235849857,0.006606256123632193,0.15202413499355316,-0.9882898926734924,0.000756247085519135,-0.356,-0.082,0.744,-0.008302623653853786,-0.006918853044878155,-0.15221476698731942,0.988288348926568,0.018,0.022,-0.028,-0.371,0.482,9.17,-0.360792875289917,-0.052221834659576416,0.7000020146369934,-0.01,0.108,0.036,0.7987335011825742,0.6709391927977416,0.7785763332570382,0.670771343556878,3.494,True,True,False,False,False,CF_3
1776883623.2234547,-0.009231125935912132,-0.02763614058494568,0.7480140328407288,-0.0008708442328497767,0.004597618710249662,0.10889188945293427,0.9940426349639893,0.0006314333877526224,-0.007,-0.027,0.747,0.0,-0.001383770608975631,0.10655033689112359,0.9943063465991202,0.023,-0.004,-0.057,0.688,-0.829,10.433,0.01496434211730957,-0.028051063418388367,0.7000001668930054,-0.018,-0.148,0.056,0.6607309071488517,0.7661707484550241,0.7246662088960097,0.7891508354314488,3.483,True,True,False,False,False,CF_2
1776883623.2234547,-0.3563806116580963,-0.08421223610639572,0.7429428696632385,0.011157761327922344,0.006728151347488165,0.15140770375728607,-0.9883855581283569,0.0007618586532771587,-0.356,-0.082,0.744,-0.008302623653853786,-0.006918853044878155,-0.15221476698731942,0.988288348926568,0.018,0.022,-0.028,-0.371,0.482,9.17,-0.360792875289917,-0.052221834659576416,0.7000020146369934,-0.01,0.108,0.036,0.7987335011825742,0.6709391927977416,0.7785763332570382,0.670771343556878,3.494,True,True,False,False,False,CF_3
1776883623.238912,-0.009343733079731464,-0.027697427198290825,0.747877299785614,-0.0010364912450313568,0.0047051929868757725,0.10918748378753662,0.9940094947814941,0.0006343182176351547,-0.007,-0.027,0.747,0.0,-0.001383770608975631,0.10655033689112359,0.9943063465991202,0.023,-0.004,-0.057,0.688,-0.829,10.433,0.01496434211730957,-0.028051063418388367,0.7000001668930054,-0.018,-0.148,0.056,0.6491645685511559,0.7864042114900435,0.7221942473487449,0.7896086060883497,3.483,True,True,False,False,False,CF_2
1776883623.238912,-0.3563750684261322,-0.08428099006414413,0.7427607774734497,0.011299953795969486,0.00689364830031991,0.15115037560462952,-0.9884222149848938,0.0007534405449405313,-0.356,-0.083,0.742,-0.006918853044878155,-0.006918853044878155,-0.15083099637834377,0.9885111377605226,0.018,0.022,-0.028,-0.371,0.482,9.17,-0.360792875289917,-0.052221834659576416,0.7000020146369934,-0.01,0.108,0.036,0.7987335011825742,0.6709391927977416,0.7785763332570382,0.670771343556878,3.494,True,True,False,False,False,CF_3
1776883623.2546184,-0.00972491130232811,-0.027845455333590508,0.747488260269165,-0.0010332621168345213,0.006515963934361935,0.11000124365091324,0.9939096570014954,0.0006368766771629453,-0.007,-0.027,0.747,0.0,-0.001383770608975631,0.10655033689112359,0.9943063465991202,0.023,-0.004,-0.057,0.688,-0.829,10.433,0.01496434211730957,-0.028051063418388367,0.7000001668930054,-0.018,-0.148,0.056,0.6491645685511559,0.7864042114900435,0.7221942473487449,0.7896086060883497,3.483,True,True,False,False,False,CF_2
1776883623.2546184,-0.3563593626022339,-0.0844852477312088,0.742282509803772,0.011303137987852097,0.0066419802606105804,0.15057259798049927,-0.9885120391845703,0.0007472791476175189,-0.356,-0.083,0.742,-0.006918853044878155,-0.006918853044878155,-0.15083099637834377,0.9885111377605226,0.009,0.023,-0.034,0.471,-1.229,10.487,-0.360792875289917,-0.052221834659576416,0.7000020146369934,-0.073,0.097,0.046,0.7926909285114824,0.6831158922713054,0.7924620431830319,0.659006637674525,3.494,True,True,False,False,False,CF_3
1776883623.269619,-0.009851079434156418,-0.027894144877791405,0.7473784685134888,-0.0011060502147302032,0.007184796500951052,0.11020341515541077,0.9938825368881226,0.0006374177755787969,-0.007,-0.027,0.746,-0.0,0.001383770608975631,0.10931787810907485,0.9940058786066767,0.023,-0.004,-0.057,0.688,-0.829,10.433,0.01496434211730957,-0.028051063418388367,0.7000001668930054,-0.018,-0.148,0.056,0.6491645685511559,0.7864042114900435,0.7221942473487449,0.7896086060883497,3.483,True,True,False,False,False,CF_2
1776883623.269619,-0.3563655614852905,-0.08454106003046036,0.7421472072601318,0.011451848782598972,0.006745857186615467,0.15040695667266846,-0.9885349273681641,0.0007484733359888196,-0.356,-0.083,0.742,-0.006918853044878155,-0.006918853044878155,-0.15083099637834377,0.9885111377605226,0.009,0.023,-0.034,0.471,-1.229,10.487,-0.360792875289917,-0.052221834659576416,0.7000020146369934,-0.073,0.097,0.046,0.7926909285114824,0.6831158922713054,0.7924620431830319,0.659006637674525,3.494,True,True,False,False,False,CF_3
1776883623.2847764,-0.010157511569559574,-0.027992703020572662,0.7471768260002136,-0.0011711433762684464,0.007969805039465427,0.11076824367046356,0.993813693523407,0.0006439164862968028,-0.007,-0.027,0.746,-0.0,0.001383770608975631,0.10931787810907485,0.9940058786066767,0.023,-0.004,-0.057,0.688,-0.829,10.433,0.01496434211730957,-0.028051063418388367,0.7000001668930054,-0.018,-0.148,0.056,0.6491645685511559,0.7864042114900435,0.7221942473487449,0.7896086060883497,3.483,True,True,False,False,False,CF_2
1776883623.2847764,-0.3564205467700958,-0.08463990688323975,0.7419129014015198,0.011731204576790333,0.006759484764188528,0.1497849076986313,-0.9886260032653809,0.000744455901440233,-0.356,-0.083,0.742,-0.006918853044878155,-0.006918853044878155,-0.15083099637834377,0.9885111377605226,0.009,0.023,-0.034,0.471,-1.229,10.487,-0.360792875289917,-0.052221834659576416,0.7000020146369934,-0.073,0.097,0.046,0.7926909285114824,0.6831158922713054,0.7924620431830319,0.659006637674525,3.494,True,True,False,False,False,CF_3
1776883623.3001413,-0.010473811067640781,-0.028126193210482597,0.7469792366027832,-0.0008104398148134351,0.009000019170343876,0.11096770316362381,0.9937829375267029,0.000642684637568891,-0.008,-0.027,0.745,0.0,0.004151311826926893,0.11070164871805048,0.9938450138634398,0.013,-0.003,-0.038,0.645,0.453,7.877,0.01496434211730957,-0.028051063418388367,0.7000001668930054,0.009,-0.092,0.053,0.6527504386968795,0.8000762951094835,0.7156328679331655,0.7732661936369879,3.483,True,True,False,False,False,CF_2
1776883623.3001413,-0.3565208911895752,-0.08473721891641617,0.7416825890541077,0.011450127698481083,0.006354272831231356,0.14932525157928467,-0.9887014031410217,0.0007390520768240094,-0.356,-0.083,0.741,-0.006918853044878155,-0.006918853044878155,-0.14944722576936814,0.988721288157045,0.009,0.023,-0.034,0.471,-1.229,10.487,-0.360792875289917,-0.052221834659576416,0.7000020146369934,-0.073,0.097,0.046,0.7926909285114824,0.6831158922713054,0.7924620431830319,0.659006637674525,3.494,True,True,False,False,False,CF_3
1776883623.3161418,-0.010796232149004936,-0.02823648229241371,0.7468258738517761,-0.0007085917168296874,0.0092225456610322,0.11128471046686172,0.9937455654144287,0.000639202946331352,-0.008,-0.027,0.745,0.0,0.004151311826926893,0.11070164871805048,0.9938450138634398,0.013,-0.003,-0.038,0.645,0.453,7.877,0.01496434211730957,-0.028051063418388367,0.7000001668930054,0.009,-0.092,0.053,0.6527504386968795,0.8000762951094835,0.7156328679331655,0.7732661936369879,3.483,True,True,False,False,False,CF_2
1776883623.3161418,-0.3566850423812866,-0.0848054364323616,0.741477370262146,0.011326714418828487,0.006625085603445768,0.14921988546848297,-0.9887169599533081,0.0007376876892521977,-0.356,-0.083,0.741,-0.006918853044878155,-0.006918853044878155,-0.14944722576936814,0.988721288157045,0.0,0.028,0.017,0.06,-0.688,11.349,-0.360792875289917,-0.052221834659576416,0.7000020146369934,-0.097,0.097,0.043,0.7926909285114824,0.6831158922713054,0.7924620431830319,0.659006637674525,3.494,True,True,False,False,False,CF_3
1776883623.3311658,-0.011109520681202412,-0.02835438773036003,0.7466965913772583,-0.0008826689445413649,0.009062815457582474,0.11193312704563141,0.9936740398406982,0.0006269230507314205,-0.008,-0.027,0.745,0.0,0.004151311826926893,0.11070164871805048,0.9938450138634398,0.013,-0.003,-0.038,0.645,0.453,7.877,0.01496434211730957,-0.028051063418388367,0.7000001668930054,0.009,-0.092,0.053,0.6527504386968795,0.8000762951094835,0.7156328679331655,0.7732661936369879,3.483,True,True,False,False,False,CF_2
1776883623.3311658,-0.3568461835384369,-0.0848880186676979,0.7413628697395325,0.011644494719803333,0.006420317105948925,0.1487717181444168,-0.9887821674346924,0.0007396061555482447,-0.356,-0.083,0.741,-0.006918853044878155,-0.006918853044878155,-0.14944722576936814,0.988721288157045,0.0,0.028,0.017,0.06,-0.688,11.349,-0.360792875289917,-0.052221834659576416,0.7000020146369934,-0.097,0.097,0.043,0.7893034256504158,0.6671702143892576,0.783962767986572,0.6529488059815366,3.494,True,True,False,False,False,CF_3
1776883623.3471854,-0.011271052062511444,-0.028381025418639183,0.7466669678688049,-0.0010962372180074453,0.009324551559984684,0.11212428659200668,0.9936498403549194,0.0006240101647563279,-0.008,-0.027,0.745,0.0,0.004151311826926893,0.11070164871805048,0.9938450138634398,0.013,-0.003,-0.038,0.645,0.453,7.877,0.01496434211730957,-0.028051063418388367,0.7000001668930054,0.009,-0.092,0.053,0.6527504386968795,0.8000762951094835,0.7156328679331655,0.7732661936369879,3.483,True,True,False,False,False,CF_2
1776883623.3471854,-0.35694676637649536,-0.08492796123027802,0.7413045763969421,0.011686593294143677,0.006172873545438051,0.14864452183246613,-0.988802433013916,0.000741831841878593,-0.356,-0.083,0.742,-0.008302623653853786,-0.006918853044878155,-0.14944722576936814,0.9887106364467034,0.0,0.028,0.017,0.06,-0.688,11.349,-0.360792875289917,-0.052221834659576416,0.7000020146369934,-0.097,0.097,0.043,0.7893034256504158,0.6671702143892576,0.783962767986572,0.6529488059815366,3.494,True,True,False,False,False,CF_3
1776883623.362178,-0.0116032175719738,-0.02848159149289131,0.7465959191322327,-0.0010554472682997584,0.010105769149959087,0.11262835562229156,0.9935852885246277,0.0006134780123829842,-0.01,-0.028,0.745,0.0,0.005535082435902524,0.1120854193270261,0.9936831595819224,0.011,-0.003,0.0,-0.93,-0.524,11.139,0.01496434211730957,-0.028051063418388367,0.7000001668930054,-0.007,-0.079,0.055,0.6527504386968795,0.8000762951094835,0.7156328679331655,0.7732661936369879,3.483,True,True,False,False,False,CF_2
1776883623.3626776,-0.3572178781032562,-0.08498179167509079,0.7412107586860657,0.011544979177415371,0.005402863956987858,0.14832893013954163,-0.9888559579849243,0.0007450229022651911,-0.356,-0.083,0.742,-0.008302623653853786,-0.006918853044878155,-0.14944722576936814,0.9887106364467034,0.0,0.028,0.017,0.06,-0.688,11.349,-0.360792875289917,-0.052221834659576416,0.7000020146369934,-0.097,0.097,0.043,0.7893034256504158,0.6671702143892576,0.783962767986572,0.6529488059815366,3.494,True,True,False,False,False,CF_3
1776883623.378168,-0.011975607834756374,-0.028559396043419838,0.7465363144874573,-0.0006212795851752162,0.011530743911862373,0.1132836565375328,0.9934955835342407,0.0006297962390817702,-0.01,-0.028,0.745,0.0,0.005535082435902524,0.1120854193270261,0.9936831595819224,0.011,-0.003,0.0,-0.93,-0.524,11.139,0.01496434211730957,-0.028051063418388367,0.7000001668930054,-0.007,-0.079,0.055,0.6623331044480049,0.7931029221026932,0.6954757000076295,0.7660334172579538,3.483,True,True,False,False,False,CF_2
1776883623.378168,-0.35753434896469116,-0.08503253757953644,0.7411245703697205,0.011799968779087067,0.005733876954764128,0.14802750945091248,-0.9888962507247925,0.0007478069164790213,-0.356,-0.083,0.742,-0.008302623653853786,-0.006918853044878155,-0.14944722576936814,0.9887106364467034,0.0,0.028,0.017,0.06,-0.688,11.349,-0.360792875289917,-0.052221834659576416,0.7000020146369934,-0.097,0.097,0.043,0.7893034256504158,0.6671702143892576,0.783962767986572,0.6529488059815366,3.494,True,True,False,False,False,CF_3
1776883623.3932226,-0.012326671741902828,-0.02862384356558323,0.7464728951454163,-0.0004339430888649076,0.012577681802213192,0.11354102939367294,0.9934536218643188,0.0006471579545177519,-0.01,-0.028,0.745,0.0,0.005535082435902524,0.1120854193270261,0.9936831595819224,0.011,-0.003,0.0,-0.93,-0.524,11.139,0.01496434211730957,-0.028051063418388367,0.7000001668930054,-0.007,-0.079,0.055,0.6623331044480049,0.7931029221026932,0.6954757000076295,0.7660334172579538,3.483,True,True,False,False,False,CF_2
1776883623.3932226,-0.35782626271247864,-0.08508627861738205,0.7410836219787598,0.011500552296638489,0.005413070321083069,0.14758063852787018,-0.9889684319496155,0.0007373862899839878,-0.357,-0.083,0.74,-0.006918853044878155,-0.005535082435902524,-0.14806345516039252,0.9889381707573722,-0.009,0.031,-0.018,-0.94,-0.846,11.352,-0.360792875289917,-0.052221834659576416,0.7000020146369934,-0.041,0.052,0.033,0.8018310826276036,0.6669871061264973,0.7828183413443198,0.6666361486228732,3.494,True,True,False,False,False,CF_3
1776883623.408658,-0.012656471692025661,-0.028738919645547867,0.7464039325714111,-0.00037935044383630157,0.013088743202388287,0.11409225314855576,0.9933839440345764,0.0006297443178482354,-0.01,-0.028,0.746,0.0,0.006918853044878155,0.1120854193270261,0.9936744880728438,0.011,-0.003,0.0,-0.93,-0.524,11.139,0.01496434211730957,-0.028051063418388367,0.7000001668930054,-0.007,-0.079,0.055,0.6623331044480049,0.7931029221026932,0.6954757000076295,0.7660334172579538,3.483,True,True,False,False,False,CF_2
1776883623.408658,-0.35823339223861694,-0.0851101279258728,0.7410392165184021,0.011466269381344318,0.004765734542161226,0.1471593976020813,-0.98903489112854,0.0007477346807718277,-0.357,-0.083,0.74,-0.006918853044878155,-0.005535082435902524,-0.14806345516039252,0.9889381707573722,-0.009,0.031,-0.018,-0.94,-0.846,11.352,-0.360792875289917,-0.052221834659576416,0.7000020146369934,-0.041,0.052,0.033,0.8018310826276036,0.6669871061264973,0.7828183413443198,0.6666361486228732,3.494,True,True,False,False,False,CF_3
1776883623.4242384,-0.012995023280382156,-0.02882729098200798,0.746366560459137,-0.00014380822540260851,0.013693693093955517,0.11445167660713196,0.9933344721794128,0.0006336970836855471,-0.01,-0.028,0.746,0.0,0.006918853044878155,0.1120854193270261,0.9936744880728438,0.011,-0.003,0.0,-0.93,-0.524,11.139,0.01496434211730957,-0.028051063418388367,0.7000001668930054,-0.007,-0.079,0.055,0.6623331044480049,0.7931029221026932,0.6954757000076295,0.7660334172579538,3.483,True,True,False,False,False,CF_2
1776883623.4242384,-0.35860756039619446,-0.08512495458126068,0.7410703301429749,0.010633980855345726,0.0040974607691168785,0.14687208831310272,-0.989089846611023,0.0007614730857312679,-0.357,-0.083,0.74,-0.006918853044878155,-0.005535082435902524,-0.14806345516039252,0.9889381707573722,-0.009,0.031,-0.018,-0.94,-0.846,11.352,-0.360792875289917,-0.052221834659576416,0.7000020146369934,-0.041,0.052,0.033,0.8018310826276036,0.6669871061264973,0.7828183413443198,0.6666361486228732,3.494,True,True,False,False,False,CF_3
1776883623.4395802,-0.013296832330524921,-0.02892194129526615,0.7463279366493225,-0.0002876341750379652,0.0140920951962471,0.11469376087188721,0.9933009743690491,0.0006271821912378073,-0.01,-0.028,0.746,0.0,0.006918853044878155,0.1120854193270261,0.9936744880728438,0.013,-0.003,-0.036,0.446,0.953,9.842,0.01496434211730957,-0.028051063418388367,0.7000001668930054,0.017,-0.047,0.045,0.6566109712367437,0.7889219501029984,0.7172198062104219,0.7799038681620508,3.483,True,True,False,False,False,CF_2
1776883623.4395802,-0.35894203186035156,-0.08518059551715851,0.7411012649536133,0.010180486366152763,0.0032308539375662804,0.14666657149791718,-0.9891283512115479,0.0007355489069595933,-0.357,-0.083,0.74,-0.006918853044878155,-0.005535082435902524,-0.14806345516039252,0.9889381707573722,-0.009,0.031,-0.018,-0.94,-0.846,11.352,-0.360792875289917,-0.052221834659576416,0.7000020146369934,-0.041,0.052,0.033,0.8018310826276036,0.6669871061264973,0.7828183413443198,0.6666361486228732,3.494,True,True,False,False,False,CF_3
1776883623.4549494,-0.013449931517243385,-0.02898038737475872,0.7463262677192688,-0.0001048054764396511,0.014132183976471424,0.11485961079597473,0.9932813048362732,0.0006337034283205867,-0.012,-0.028,0.745,0.001383770608975631,0.009686394262829417,0.11346918993600175,0.9934933325797181,0.013,-0.003,-0.036,0.446,0.953,9.842,0.01496434211730957,-0.028051063418388367,0.7000001668930054,0.017,-0.047,0.045,0.6566109712367437,0.7889219501029984,0.7172198062104219,0.7799038681620508,3.483,True,True,False,False,False,CF_2
1776883623.4549494,-0.3591610789299011,-0.08517918735742569,0.741138756275177,0.009943494573235512,0.0028432561084628105,0.14617621898651123,-0.9892045259475708,0.0007405011565424502,-0.358,-0.083,0.741,-0.006918853044878155,-0.004151311826926893,-0.1466796845514169,0.9891511341663395,-0.017,0.029,0.024,-1.353,-0.091,10.332,-0.360792875289917,-0.052221834659576416,0.7000020146369934,0.0,-0.012,0.022,0.8018310826276036,0.6669871061264973,0.7828183413443198,0.6666361486228732,3.494,True,True,False,False,False,CF_3
1776883623.4705186,-0.013719363138079643,-0.02905941568315029,0.7463693618774414,0.00020292139379307628,0.014488236978650093,0.11532798409461975,0.9932218790054321,0.0006271348684094846,-0.012,-0.028,0.745,0.001383770608975631,0.009686394262829417,0.11346918993600175,0.9934933325797181,0.013,-0.003,-0.036,0.446,0.953,9.842,0.01496434211730957,-0.028051063418388367,0.7000001668930054,0.017,-0.047,0.045,0.6566109712367437,0.7889219501029984,0.7172198062104219,0.7799038681620508,3.483,True,True,False,False,False,CF_2
1776883623.4705186,-0.35961851477622986,-0.08523618429899216,0.7411414980888367,0.009589511901140213,0.002035219920799136,0.14578266441822052,-0.9892681837081909,0.000743766431696713,-0.358,-0.083,0.741,-0.006918853044878155,-0.004151311826926893,-0.1466796845514169,0.9891511341663395,-0.017,0.029,0.024,-1.353,-0.091,10.332,-0.360792875289917,-0.052221834659576416,0.7000020146369934,0.0,-0.012,0.022,0.7906309605554284,0.66669718471046,0.7798123140306706,0.6450598916609446,3.494,True,True,False,False,False,CF_3
1776883623.4858472,-0.013994948007166386,-0.029152613133192062,0.746385931968689,0.00030434824293479323,0.01467945333570242,0.11585989594459534,0.9931570291519165,0.0006409701891243458,-0.012,-0.028,0.745,0.001383770608975631,0.009686394262829417,0.11346918993600175,0.9934933325797181,0.013,-0.003,-0.036,0.446,0.953,9.842,0.01496434211730957,-0.028051063418388367,0.7000001668930054,0.017,-0.047,0.045,0.6566109712367437,0.7889219501029984,0.7172198062104219,0.7799038681620508,3.483,True,True,False,False,False,CF_2
1776883623.4858472,-0.3600890338420868,-0.08527635782957077,0.7411947250366211,0.009282618761062622,0.0011603169841691852,0.14611929655075073,-0.9892227053642273,0.0007481491193175316,-0.358,-0.083,0.741,-0.006918853044878155,-0.004151311826926893,-0.1466796845514169,0.9891511341663395,-0.017,0.029,0.024,-1.353,-0.091,10.332,-0.360792875289917,-0.052221834659576416,0.7000020146369934,0.0,-0.012,0.022,0.7906309605554284,0.66669718471046,0.7798123140306706,0.6450598916609446,3.494,True,True,False,False,False,CF_3
1776883623.5013468,-0.014263436198234558,-0.029255524277687073,0.7463892698287964,0.00040554592851549387,0.014712557196617126,0.11641346663236618,0.9930918216705322,0.0006416199612431228,-0.012,-0.029,0.746,0.001383770608975631,0.011070164871805049,0.11485296054497737,0.9933198548718669,0.019,-0.003,0.003,0.442,-0.263,8.946,0.01496434211730957,-0.028051063418388367,0.7000001668930054,-0.008,-0.016,0.058,0.6566109712367437,0.7889219501029984,0.7172198062104219,0.7799038681620508,3.483,True,True,False,False,False,CF_2
1776883623.5013468,-0.36056774854660034,-0.08536497503519058,0.7412669062614441,0.008779815398156643,0.0006889717187732458,0.14609086513519287,-0.989232063293457,0.0007324545294977725,-0.359,-0.084,0.741,-0.005535082435902524,-0.001383770608975631,-0.1466796845514169,0.9891675885213922,-0.017,0.029,0.024,-1.353,-0.091,10.332,-0.360792875289917,-0.052221834659576416,0.7000020146369934,0.0,-0.012,0.022,0.7906309605554284,0.66669718471046,0.7798123140306706,0.6450598916609446,3.494,True,True,False,False,False,CF_3
1776883623.5165865,-0.014479979872703552,-0.029370853677392006,0.7464077472686768,0.0006646654801443219,0.014808249659836292,0.11694681644439697,0.9930275082588196,0.0006293541518971324,-0.012,-0.029,0.746,0.001383770608975631,0.011070164871805049,0.11485296054497737,0.9933198548718669,0.019,-0.003,0.003,0.442,-0.263,8.946,0.01496434211730957,-0.028051063418388367,0.7000001668930054,-0.008,-0.016,0.058,0.6305790798809796,0.7880521858548867,0.7260547798886091,0.7642481116960402,3.483,True,True,False,False,False,CF_2
1776883623.5165865,-0.36107343435287476,-0.08540709316730499,0.7413429617881775,0.00782625749707222,0.0005856823991052806,0.14573617279529572,-0.9892924427986145,0.0007507100235670805,-0.359,-0.084,0.741,-0.005535082435902524,-0.001383770608975631,-0.1466796845514169,0.9891675885213922,-0.017,0.029,0.024,-1.353,-0.091,10.332,-0.360792875289917,-0.052221834659576416,0.7000020146369934,0.0,-0.012,0.022,0.7906309605554284,0.66669718471046,0.7798123140306706,0.6450598916609446,3.494,True,True,False,False,False,CF_3
1776883623.5319154,-0.014689852483570576,-0.029447106644511223,0.746381402015686,0.0002231249527540058,0.014898698776960373,0.11720720678567886,0.9929957389831543,0.0006275899359025061,-0.012,-0.029,0.746,0.001383770608975631,0.011070164871805049,0.11485296054497737,0.9933198548718669,0.019,-0.003,0.003,0.442,-0.263,8.946,0.01496434211730957,-0.028051063418388367,0.7000001668930054,-0.008,-0.016,0.058,0.6305790798809796,0.7880521858548867,0.7260547798886091,0.7642481116960402,3.483,True,True,False,False,False,CF_2
1776883623.5324194,-0.3615463078022003,-0.0854843482375145,0.7414187788963318,0.007226627320051193,0.00047657315735705197,0.1456575095653534,-0.9893085956573486,0.0007556570344604552,-0.359,-0.084,0.741,-0.005535082435902524,-0.001383770608975631,-0.1466796845514169,0.9891675885213922,-0.021,0.029,0.033,0.654,-1.533,10.524,-0.360792875289917,-0.052221834659576416,0.7000020146369934,0.035,-0.086,-0.004,0.768032349126421,0.6696726939803158,0.7964446478980697,0.6376745250629434,3.494,True,True,False,False,False,CF_3
1776883623.5475078,-0.014784782193601131,-0.029467305168509483,0.7463969588279724,6.424231105484068e-05,0.014929582364857197,0.11739647388458252,0.9929729104042053,0.0006276434287428856,-0.012,-0.029,0.746,0.001383770608975631,0.011070164871805049,0.11485296054497737,0.9933198548718669,0.019,-0.003,0.003,0.442,-0.263,8.946,0.01496434211730957,-0.028051063418388367,0.7000001668930054,-0.008,-0.016,0.058,0.6305790798809796,0.7880521858548867,0.7260547798886091,0.7642481116960402,3.483,True,True,False,False,False,CF_2
1776883623.5480223,-0.3617784380912781,-0.08553559333086014,0.7414703369140625,0.007485855836421251,0.0006464602192863822,0.14555491507053375,-0.9893217086791992,0.0007562373066321015,-0.361,-0.083,0.742,-0.004151311826926893,-0.0,-0.14529591394244126,0.9893795348609887,-0.021,0.029,0.033,0.654,-1.533,10.524,-0.360792875289917,-0.052221834659576416,0.7000020146369934,0.035,-0.086,-0.004,0.768032349126421,0.6696726939803158,0.7964446478980697,0.6376745250629434,3.494,True,True,False,False,False,CF_3
1776883623.562781,-0.014950290322303772,-0.029568733647465706,0.7463984489440918,-1.3597756151284557e-05,0.014883912168443203,0.11783979088068008,0.9929211139678955,0.0006223837845027447,-0.013,-0.029,0.745,0.001383770608975631,0.011070164871805049,0.116236731153953,0.9931588790114382,0.019,-0.003,0.003,0.442,-0.263,8.946,0.01496434211730957,-0.028051063418388367,0.7000001668930054,-0.008,-0.016,0.058,0.6305790798809796,0.7880521858548867,0.7260547798886091,0.7642481116960402,3.483,True,True,False,False,False,CF_2
1776883623.562781,-0.3622223734855652,-0.08571167290210724,0.7415386438369751,0.007753157056868076,0.0004599203239195049,0.14550995826721191,-0.9893262982368469,0.0007302869926206768,-0.361,-0.083,0.742,-0.004151311826926893,-0.0,-0.14529591394244126,0.9893795348609887,-0.021,0.029,0.033,0.654,-1.533,10.524,-0.360792875289917,-0.052221834659576416,0.7000020146369934,0.035,-0.086,-0.004,0.768032349126421,0.6696726939803158,0.7964446478980697,0.6376745250629434,3.494,True,True,False,False,False,CF_3
1776883623.5783007,-0.015119846910238266,-0.02962578646838665,0.7464305758476257,0.00011599955905694515,0.014966344460844994,0.11845767498016357,0.9928463697433472,0.0006281816167756915,-0.013,-0.029,0.745,0.001383770608975631,0.011070164871805049,0.116236731153953,0.9931588790114382,0.021,-0.003,0.008,-0.294,0.565,10.428,0.01496434211730957,-0.028051063418388367,0.7000001668930054,-0.01,-0.011,0.053,0.6547951476310369,0.777080949111162,0.7144426642252232,0.7805294880598154,3.483,True,True,False,False,False,CF_2
1776883623.5783007,-0.3628133237361908,-0.08584330230951309,0.7415302991867065,0.008783997036516666,0.00020548822067212313,0.14602141082286835,-0.989242434501648,0.0007343961042352021,-0.361,-0.083,0.742,-0.004151311826926893,-0.0,-0.14529591394244126,0.9893795348609887,-0.021,0.029,0.033,0.654,-1.533,10.524,-0.360792875289917,-0.052221834659576416,0.7000020146369934,0.035,-0.086,-0.004,0.768032349126421,0.6696726939803158,0.7964446478980697,0.6376745250629434,3.494,True,True,False,False,False,CF_3
1776883623.5943775,-0.015271597541868687,-0.02970537543296814,0.7464358806610107,-4.6188157284632325e-05,0.015368655323982239,0.11901136487722397,0.9927739500999451,0.0006224655080586672,-0.013,-0.029,0.745,0.001383770608975631,0.011070164871805049,0.116236731153953,0.9931588790114382,0.021,-0.003,0.008,-0.294,0.565,10.428,0.01496434211730957,-0.028051063418388367,0.7000001668930054,-0.01,-0.011,0.053,0.6547951476310369,0.777080949111162,0.7144426642252232,0.7805294880598154,3.483,True,True,False,False,False,CF_2
1776883623.5943775,-0.36328908801078796,-0.08598016947507858,0.7415428757667542,0.009026366285979748,-0.0002691217523533851,0.1465899497270584,-0.989156186580658,0.0007339523290283978,-0.362,-0.084,0.742,-0.004151311826926893,0.0,-0.1466796845514169,0.9891753316525905,-0.021,0.029,0.033,0.654,-1.533,10.524,-0.360792875289917,-0.052221834659576416,0.7000020146369934,0.035,-0.086,-0.004,0.768032349126421,0.6696726939803158,0.7964446478980697,0.6376745250629434,3.494,True,True,False,False,False,CF_3
1776883623.6098588,-0.01537475548684597,-0.02977515384554863,0.7464537620544434,-0.00017548748292028904,0.01543477363884449,0.11945187300443649,0.9927200078964233,0.0006271640304476023,-0.014,-0.029,0.746,0.001383770608975631,0.011070164871805049,0.11762050176292864,0.9929959487297265,0.021,-0.003,0.008,-0.294,0.565,10.428,0.01496434211730957,-0.028051063418388367,0.7000001668930054,-0.01,-0.011,0.053,0.6547951476310369,0.777080949111162,0.7144426642252232,0.7805294880598154,3.483,True,True,False,False,False,CF_2
1776883623.6098588,-0.36376622319221497,-0.08614491671323776,0.7415618300437927,0.008777485229074955,-0.0008564730524085462,0.14671488106250763,-0.9891394972801208,0.0007284563034772873,-0.362,-0.084,0.742,-0.004151311826926893,0.0,-0.1466796845514169,0.9891753316525905,-0.022,0.025,-0.003,0.051,0.679,8.85,-0.360792875289917,-0.052221834659576416,0.7000020146369934,-0.009,-0.047,-0.028,0.7683985656519418,0.6827649347676814,0.8004272526131075,0.653131914244297,3.494,True,True,False,False,False,CF_3
1776883623.6253242,-0.015452204272150993,-0.02984798513352871,0.7464745044708252,-0.00030706115649081767,0.015366372652351856,0.11976756900548935,0.9926829934120178,0.0006303884438239038,-0.014,-0.029,0.746,0.001383770608975631,0.011070164871805049,0.11762050176292864,0.9929959487297265,0.021,-0.003,0.008,-0.294,0.565,10.428,0.01496434211730957,-0.028051063418388367,0.7000001668930054,-0.01,-0.011,0.053,0.6547951476310369,0.777080949111162,0.7144426642252232,0.7805294880598154,3.483,True,True,False,False,False,CF_2
1776883623.6253242,-0.3643064796924591,-0.08630884438753128,0.7415574193000793,0.00842245016247034,-0.001596121583133936,0.14690178632736206,-0.9891140460968018,0.0007430475670844316,-0.362,-0.084,0.742,-0.004151311826926893,0.0,-0.1466796845514169,0.9891753316525905,-0.022,0.025,-0.003,0.051,0.679,8.85,-0.360792875289917,-0.052221834659576416,0.7000020146369934,-0.009,-0.047,-0.028,0.7683985656519418,0.6827649347676814,0.8004272526131075,0.653131914244297,3.494,True,True,False,False,False,CF_3
1776883623.6408565,-0.015485390089452267,-0.029896292835474014,0.7464880347251892,-0.0003708661824930459,0.01512194238603115,0.12011446058750153,0.9926448464393616,0.0006326076108962297,-0.014,-0.029,0.746,0.001383770608975631,0.011070164871805049,0.11762050176292864,0.9929959487297265,0.021,-0.003,0.008,-0.294,0.565,10.428,0.01496434211730957,-0.028051063418388367,0.7000001668930054,-0.01,-0.011,0.053,0.6547951476310369,0.777080949111162,0.7144426642252232,0.7805294880598154,3.483,True,True,False,False,False,CF_2
1776883623.6408565,-0.364835262298584,-0.08658643811941147,0.7415162920951843,0.009210790507495403,-0.002320094732567668,0.14743848145008087,-0.9890255928039551,0.0007519874488934875,-0.363,-0.084,0.741,-0.004151311826926893,0.001383770608975631,-0.1466796845514169,0.9891743637645055,-0.022,0.025,-0.003,0.051,0.679,8.85,-0.360792875289917,-0.052221834659576416,0.7000020146369934,-0.009,-0.047,-0.028,0.7683985656519418,0.6827649347676814,0.8004272526131075,0.653131914244297,3.494,True,True,False,False,False,CF_3
1776883623.656644,-0.015501190908253193,-0.029955681413412094,0.7464883923530579,-0.00042601139284670353,0.014928893186151981,0.12022098898887634,0.9926348924636841,0.0006240975926630199,-0.014,-0.029,0.746,0.001383770608975631,0.011070164871805049,0.11762050176292864,0.9929959487297265,0.021,-0.003,0.008,-0.294,0.565,10.428,0.01496434211730957,-0.028051063418388367,0.7000001668930054,-0.01,-0.011,0.053,0.6547951476310369,0.777080949111162,0.7144426642252232,0.7805294880598154,3.483,True,True,False,False,False,CF_2
1776883623.656644,-0.3650619387626648,-0.08667466044425964,0.7415256500244141,0.009544630534946918,-0.002822308102622628,0.1478293240070343,-0.9889628291130066,0.0007471377612091601,-0.363,-0.084,0.741,-0.004151311826926893,0.001383770608975631,-0.1466796845514169,0.9891743637645055,-0.022,0.025,-0.003,0.051,0.679,8.85,-0.360792875289917,-0.052221834659576416,0.7000020146369934,-0.009,-0.047,-0.028,0.7683985656519418,0.6827649347676814,0.8004272526131075,0.653131914244297,3.494,True,True,False,False,False,CF_3
1776883623.6720195,-0.015511572360992432,-0.03001086227595806,0.7464816570281982,-0.000558470725081861,0.014645927585661411,0.12050019204616547,0.9926052093505859,0.0006262845708988607,-0.014,-0.029,0.746,0.001383770608975631,0.011070164871805049,0.11762050176292864,0.9929959487297265,0.027,-0.003,-0.052,0.821,0.41,8.804,0.01496434211730957,-0.028051063418388367,0.7000001668930054,-0.024,0.053,0.043,0.6412451361867705,0.7835049973296712,0.7399710078583963,0.7832455939574273,3.483,True,True,False,False,False,CF_2
1776883623.6720195,-0.3655034899711609,-0.08685523271560669,0.7415030598640442,0.00970857497304678,-0.0035630352795124054,0.14788274466991425,-0.9889509081840515,0.0007523088133893907,-0.363,-0.084,0.741,-0.004151311826926893,0.001383770608975631,-0.1466796845514169,0.9891743637645055,-0.022,0.022,-0.017,-0.872,1.338,9.779,-0.360792875289917,-0.052221834659576416,0.7000020146369934,0.027,-0.136,-0.054,0.7683985656519418,0.6827649347676814,0.8004272526131075,0.653131914244297,3.494,True,True,False,False,False,CF_3
1776883623.6874866,-0.015480529516935349,-0.030078865587711334,0.746512234210968,-0.0004375493444968015,0.01422204077243805,0.12071073800325394,0.9925857782363892,0.0006175077869556844,-0.013,-0.029,0.745,0.001383770608975631,0.011070164871805049,0.11900427237190427,0.9928310630645308,0.027,-0.003,-0.052,0.821,0.41,8.804,0.01496434211730957,-0.028051063418388367,0.7000001668930054,-0.024,0.053,0.043,0.6412451361867705,0.7835049973296712,0.7399710078583963,0.7832455939574273,3.483,True,True,False,False,False,CF_2
1776883623.6874866,-0.3659555912017822,-0.08710213750600815,0.741516649723053,0.009545331820845604,-0.003983182832598686,0.14839214086532593,-0.9888744950294495,0.0007437561871483922,-0.363,-0.084,0.741,-0.004151311826926893,0.001383770608975631,-0.1466796845514169,0.9891743637645055,-0.022,0.022,-0.017,-0.872,1.338,9.779,-0.360792875289917,-0.052221834659576416,0.7000020146369934,0.027,-0.136,-0.054,0.7559624628061341,0.6885938811322194,0.8109712367437247,0.6652475776302739,3.494,True,True,False,False,False,CF_3
1776883623.7029645,-0.01544803474098444,-0.030123965814709663,0.7465239763259888,-0.0005396464257501066,0.014078511856496334,0.12095443159341812,0.9925581216812134,0.0006241753580980003,-0.014,-0.029,0.745,0.0,0.009686394262829417,0.12038804298087989,0.9926796526943719,0.027,-0.003,-0.052,0.821,0.41,8.804,0.01496434211730957,-0.028051063418388367,0.7000001668930054,-0.024,0.053,0.043,0.6412451361867705,0.7835049973296712,0.7399710078583963,0.7832455939574273,3.483,True,True,False,False,False,CF_2
1776883623.7029645,-0.3664194941520691,-0.08738969266414642,0.7415505647659302,0.00981973484158516,-0.004727174062281847,0.14942237734794617,-0.9887135028839111,0.0007332813693210483,-0.365,-0.085,0.741,-0.005535082435902524,0.002767541217951262,-0.14806345516039252,0.9889585010626083,-0.022,0.022,-0.017,-0.872,1.338,9.779,-0.360792875289917,-0.052221834659576416,0.7000020146369934,0.027,-0.136,-0.054,0.7559624628061341,0.6885938811322194,0.8109712367437247,0.6652475776302739,3.494,True,True,False,False,False,CF_3
1776883623.7182796,-0.015390406362712383,-0.030170904472470284,0.7465561032295227,-0.000281552376691252,0.013979802839457989,0.12122590094804764,0.9925265312194824,0.0006260763038881123,-0.014,-0.029,0.745,0.0,0.009686394262829417,0.12038804298087989,0.9926796526943719,0.033,-0.001,0.017,0.028,-0.198,10.889,0.01496434211730957,-0.028051063418388367,0.7000001668930054,-0.007,-0.002,0.03,0.6519874876020447,0.7894254978255894,0.7066758220798047,0.7573510337987335,3.483,True,True,False,False,False,CF_2
1776883623.7182796,-0.3668369948863983,-0.08766349405050278,0.7416038513183594,0.010035396553575993,-0.004837758839130402,0.14961379766464233,-0.9886818528175354,0.0007208468159660697,-0.365,-0.085,0.741,-0.005535082435902524,0.002767541217951262,-0.14806345516039252,0.9889585010626083,-0.022,0.022,-0.017,-0.872,1.338,9.779,-0.360792875289917,-0.052221834659576416,0.7000020146369934,0.027,-0.136,-0.054,0.7559624628061341,0.6885938811322194,0.8109712367437247,0.6652475776302739,3.494,True,True,False,False,False,CF_3
1776883623.7337065,-0.015324823558330536,-0.030231859534978867,0.746599018573761,-0.0001970792218344286,0.01383198145776987,0.12151896208524704,0.9924927353858948,0.0006265114061534405,-0.014,-0.029,0.745,0.0,0.009686394262829417,0.12038804298087989,0.9926796526943719,0.033,-0.001,0.017,0.028,-0.198,10.889,0.01496434211730957,-0.028051063418388367,0.7000001668930054,-0.007,-0.002,0.03,0.6519874876020447,0.7894254978255894,0.7066758220798047,0.7573510337987335,3.483,True,True,False,False,False,CF_2
1776883623.7337065,-0.36724910140037537,-0.08787698298692703,0.7417064309120178,0.010499761439859867,-0.005665367003530264,0.1503736525774002,-0.9885573387145996,0.000729780294932425,-0.365,-0.085,0.741,-0.005535082435902524,0.002767541217951262,-0.14806345516039252,0.9889585010626083,-0.022,0.022,-0.017,-0.872,1.338,9.779,-0.360792875289917,-0.052221834659576416,0.7000020146369934,0.027,-0.136,-0.054,0.7559624628061341,0.6885938811322194,0.8109712367437247,0.6652475776302739,3.494,True,True,False,False,False,CF_3
1776883623.7492673,-0.015289059840142727,-0.030271241441369057,0.7466173768043518,-0.00012129176320740953,0.013668602332472801,0.12150589376688004,0.99249666929245,0.0006263579125516117,-0.014,-0.029,0.745,0.0,0.009686394262829417,0.12038804298087989,0.9926796526943719,0.033,-0.001,0.017,0.028,-0.198,10.889,0.01496434211730957,-0.028051063418388367,0.7000001668930054,-0.007,-0.002,0.03,0.6519874876020447,0.7894254978255894,0.7066758220798047,0.7573510337987335,3.483,True,True,False,False,False,CF_2
1776883623.7492673,-0.36742526292800903,-0.08802434802055359,0.7417464852333069,0.010540520772337914,-0.005983059760183096,0.15096788108348846,-0.9884644150733948,0.0007285465835593641,-0.366,-0.086,0.741,-0.006918853044878155,0.004151311826926893,-0.15083099637834377,0.9885266342462276,-0.018,0.02,-0.026,-1.137,1.787,9.834,-0.360792875289917,-0.052221834659576416,0.7000020146369934,0.048,-0.185,-0.073,0.7573815518425269,0.7031052109559777,0.8071107042038606,0.6657663843747615,3.494,True,True,False,False,False,CF_3
1776883623.764475,-0.015177283436059952,-0.030340852215886116,0.7466573715209961,0.00010692518844734877,0.013675786554813385,0.12185270339250565,0.9924540519714355,0.0006257655913941562,-0.013,-0.03,0.746,0.0,0.009686394262829417,0.12038804298087989,0.9926796526943719,0.033,-0.001,0.017,0.028,-0.198,10.889,0.01496434211730957,-0.028051063418388367,0.7000001668930054,-0.007,-0.002,0.03,0.6519874876020447,0.7894254978255894,0.7066758220798047,0.7573510337987335,3.483,True,True,False,False,False,CF_2
1776883623.7649698,-0.3677670955657959,-0.08835291117429733,0.7418824434280396,0.01066123228520155,-0.006157371215522289,0.15185250341892242,-0.9883264899253845,0.00074136903276667,-0.366,-0.086,0.741,-0.006918853044878155,0.004151311826926893,-0.15083099637834377,0.9885266342462276,-0.018,0.02,-0.026,-1.137,1.787,9.834,-0.360792875289917,-0.052221834659576416,0.7000020146369934,0.048,-0.185,-0.073,0.7573815518425269,0.7031052109559777,0.8071107042038606,0.6657663843747615,3.494,True,True,False,False,False,CF_3
1776883623.7804692,-0.015071801841259003,-0.030412450432777405,0.7466773390769958,0.0004066240508109331,0.014308753423392773,0.12203764170408249,0.992422342300415,0.0006335710640996695,-0.013,-0.03,0.746,0.0,0.009686394262829417,0.12038804298087989,0.9926796526943719,0.039,-0.001,-0.032,0.401,0.301,9.625,0.01496434211730957,-0.028051063418388367,0.7000001668930054,0.057,0.004,0.024,0.6519874876020447,0.7894254978255894,0.7066758220798047,0.7573510337987335,3.483,True,True,False,False,False,CF_2
1776883623.7804692,-0.3680742681026459,-0.08865086734294891,0.7420787215232849,0.010845686309039593,-0.006598230917006731,0.1524094045162201,-0.9882359504699707,0.0007315846160054207,-0.366,-0.086,0.741,-0.006918853044878155,0.004151311826926893,-0.15083099637834377,0.9885266342462276,-0.018,0.02,-0.026,-1.137,1.787,9.834,-0.360792875289917,-0.052221834659576416,0.7000020146369934,0.048,-0.185,-0.073,0.7573815518425269,0.7031052109559777,0.8071107042038606,0.6657663843747615,3.494,True,True,False,False,False,CF_3
1776883623.7960303,-0.014942105859518051,-0.030494464561343193,0.7467321157455444,0.0004705361498054117,0.014490297064185143,0.12243372946977615,0.9923707842826843,0.0006374293589033186,-0.013,-0.03,0.746,0.0,0.009686394262829417,0.12038804298087989,0.9926796526943719,0.039,-0.001,-0.032,0.401,0.301,9.625,0.01496434211730957,-0.028051063418388367,0.7000001668930054,0.057,0.004,0.024,0.662226291294728,0.764812695506218,0.717067215991455,0.7931181811245899,3.483,True,True,False,False,False,CF_2
1776883623.7960303,-0.3683835566043854,-0.08893323689699173,0.7423016428947449,0.011674663983285427,-0.007194657810032368,0.1530149281024933,-0.9881287217140198,0.0007186108850874007,-0.367,-0.086,0.741,-0.006918853044878155,0.004151311826926893,-0.15221476698731942,0.9883145050001315,-0.018,0.02,-0.026,-1.137,1.787,9.834,-0.360792875289917,-0.052221834659576416,0.7000020146369934,0.048,-0.185,-0.073,0.7573815518425269,0.7031052109559777,0.8071107042038606,0.6657663843747615,3.494,True,True,False,False,False,CF_3
1776883623.8119318,-0.014805122278630733,-0.030579306185245514,0.7467495203018188,0.0007535982877016068,0.014273429289460182,0.12263830006122589,0.9923486113548279,0.0006398221594281495,-0.013,-0.03,0.745,0.001383770608975631,0.009686394262829417,0.12177181358985553,0.9925098913160132,0.039,-0.001,-0.032,0.401,0.301,9.625,0.01496434211730957,-0.028051063418388367,0.7000001668930054,0.057,0.004,0.024,0.662226291294728,0.764812695506218,0.717067215991455,0.7931181811245899,3.483,True,True,False,False,False,CF_2
1776883623.8119318,-0.3686317503452301,-0.08922358602285385,0.7425349354743958,0.012483212165534496,-0.007012404501438141,0.15391482412815094,-0.9879804253578186,0.0007239021360874176,-0.367,-0.086,0.741,-0.006918853044878155,0.004151311826926893,-0.15221476698731942,0.9883145050001315,-0.012,0.016,0.002,-0.795,1.394,9.881,-0.360792875289917,-0.052221834659576416,0.7000020146369934,-0.095,-0.004,-0.092,0.7729304951552606,0.6784008545052262,0.7923399710078584,0.6684672312504768,3.494,True,True,False,False,False,CF_3
1776883623.8279417,-0.014635294675827026,-0.030695466324687004,0.7467586994171143,0.001098834560252726,0.013936995528638363,0.12282126396894455,0.9923303723335266,0.0006361796986311674,-0.013,-0.03,0.745,0.001383770608975631,0.009686394262829417,0.12177181358985553,0.9925098913160132,0.039,-0.001,-0.032,0.401,0.301,9.625,0.01496434211730957,-0.028051063418388367,0.7000001668930054,0.057,0.004,0.024,0.662226291294728,0.764812695506218,0.717067215991455,0.7931181811245899,3.483,True,True,False,False,False,CF_2
1776883623.8279417,-0.36884409189224243,-0.08950914442539215,0.7428264021873474,0.013142564333975315,-0.006404990330338478,0.1545773446559906,-0.9878725409507751,0.0007377454894594848,-0.367,-0.086,0.741,-0.006918853044878155,0.004151311826926893,-0.15221476698731942,0.9883145050001315,-0.012,0.016,0.002,-0.795,1.394,9.881,-0.360792875289917,-0.052221834659576416,0.7000020146369934,-0.095,-0.004,-0.092,0.7729304951552606,0.6784008545052262,0.7923399710078584,0.6684672312504768,3.494,True,True,False,False,False,CF_3
1776883623.8435087,-0.01446487195789814,-0.030805032700300217,0.746795654296875,0.0009818437974900007,0.013475720770657063,0.12306492030620575,0.9923067092895508,0.0006313485791906714,-0.013,-0.03,0.745,0.001383770608975631,0.009686394262829417,0.12177181358985553,0.9925098913160132,0.039,-0.001,-0.032,0.401,0.301,9.625,0.01496434211730957,-0.028051063418388367,0.7000001668930054,0.057,0.004,0.024,0.662226291294728,0.764812695506218,0.717067215991455,0.7931181811245899,3.483,True,True,False,False,False,CF_2
1776883623.8435087,-0.3690461814403534,-0.08979282528162003,0.7431724071502686,0.01403255108743906,-0.0058169676922261715,0.1551310122013092,-0.9877771139144897,0.0007441297639161348,-0.368,-0.088,0.742,-0.009686394262829417,0.004151311826926893,-0.15498230820527067,0.9878610350244953,-0.012,0.016,0.002,-0.795,1.394,9.881,-0.360792875289917,-0.052221834659576416,0.7000020146369934,-0.095,-0.004,-0.092,0.7729304951552606,0.6784008545052262,0.7923399710078584,0.6684672312504768,3.494,True,True,False,False,False,CF_3
1776883623.8589945,-0.014278307557106018,-0.030901184305548668,0.7468310594558716,0.0008900755783542991,0.012938578613102436,0.12333689630031586,0.9922801852226257,0.0006257959175854921,-0.013,-0.03,0.747,0.002767541217951262,0.009686394262829417,0.12177181358985553,0.9925069974044664,0.044,-0.002,0.03,-0.38,1.004,8.861,0.01496434211730957,-0.028051063418388367,0.7000001668930054,0.003,0.069,0.031,0.622919050888838,0.7641718165865568,0.7269398031586175,0.7732051575494011,3.483,True,True,False,False,False,CF_2
1776883623.8589945,-0.3691898286342621,-0.09009302407503128,0.7435793876647949,0.014738953672349453,-0.005417353473603725,0.15646904706954956,-0.987558126449585,0.0007271431386470795,-0.368,-0.088,0.742,-0.009686394262829417,0.004151311826926893,-0.15498230820527067,0.9878610350244953,-0.012,0.016,0.002,-0.795,1.394,9.881,-0.360792875289917,-0.052221834659576416,0.7000020146369934,-0.095,-0.004,-0.092,0.7729304951552606,0.6784008545052262,0.7923399710078584,0.6684672312504768,3.494,True,True,False,False,False,CF_3
1776883623.8744173,-0.014088001102209091,-0.030999979004263878,0.7468401789665222,0.0007988791912794113,0.01262172032147646,0.12358800321817398,0.9922530651092529,0.0006274731131270528,-0.013,-0.03,0.747,0.002767541217951262,0.009686394262829417,0.12177181358985553,0.9925069974044664,0.044,-0.002,0.03,-0.38,1.004,8.861,0.01496434211730957,-0.028051063418388367,0.7000001668930054,0.003,0.069,0.031,0.622919050888838,0.7641718165865568,0.7269398031586175,0.7732051575494011,3.483,True,True,False,False,False,CF_2
1776883623.8744173,-0.3692723512649536,-0.09035912901163101,0.7439644932746887,0.014927483163774014,-0.005545327439904213,0.1573234647512436,-0.9874187111854553,0.0007201190455816686,-0.368,-0.088,0.742,-0.009686394262829417,0.004151311826926893,-0.15498230820527067,0.9878610350244953,-0.012,0.016,0.002,-0.795,1.394,9.881,-0.360792875289917,-0.052221834659576416,0.7000020146369934,-0.095,-0.004,-0.092,0.7729304951552606,0.6784008545052262,0.7923399710078584,0.6684672312504768,3.494,True,True,False,False,False,CF_3
1776883623.889742,-0.013988779857754707,-0.031059883534908295,0.7468545436859131,0.0010161377722397447,0.012263946235179901,0.1238354966044426,0.9922264814376831,0.0006241120863705873,-0.013,-0.03,0.747,0.002767541217951262,0.009686394262829417,0.12177181358985553,0.9925069974044664,0.044,-0.002,0.03,-0.38,1.004,8.861,0.01496434211730957,-0.028051063418388367,0.7000001668930054,0.003,0.069,0.031,0.622919050888838,0.7641718165865568,0.7269398031586175,0.7732051575494011,3.483,True,True,False,False,False,CF_2
1776883623.889742,-0.3693329691886902,-0.09046537429094315,0.7441474199295044,0.014732159674167633,-0.00541259627789259,0.15776032209396362,-0.987352728843689,0.0007197069935500622,-0.368,-0.088,0.742,-0.009686394262829417,0.004151311826926893,-0.15498230820527067,0.9878610350244953,-0.004,0.019,0.012,-0.602,-0.719,10.468,-0.360792875289917,-0.052221834659576416,0.7000020146369934,-0.011,0.102,-0.13,0.7623407339589532,0.6869916838330663,0.7729304951552606,0.6857862211032273,3.494,True,True,False,False,False,CF_3
1776883623.905095,-0.013804353773593903,-0.031182602047920227,0.746834397315979,0.0011558039113879204,0.012060292065143585,0.12411210685968399,0.9921942949295044,0.000636660261079669,-0.012,-0.03,0.746,0.001383770608975631,0.006918853044878155,0.12315558419883116,0.9923622910671736,0.044,-0.002,0.03,-0.38,1.004,8.861,0.01496434211730957,-0.028051063418388367,0.7000001668930054,0.003,0.069,0.031,0.622919050888838,0.7641718165865568,0.7269398031586175,0.7732051575494011,3.483,True,True,False,False,False,CF_2
1776883623.905095,-0.3693864345550537,-0.0907210260629654,0.7445532083511353,0.015151877887547016,-0.005311040207743645,0.1591196060180664,-0.9871287941932678,0.000731015345081687,-0.369,-0.088,0.743,-0.009686394262829417,0.004151311826926893,-0.15774984942322193,0.9874228705996492,-0.004,0.019,0.012,-0.602,-0.719,10.468,-0.360792875289917,-0.052221834659576416,0.7000020146369934,-0.011,0.102,-0.13,0.7623407339589532,0.6869916838330663,0.7729304951552606,0.6857862211032273,3.494,True,True,False,False,False,CF_3
1776883623.9205072,-0.013607249595224857,-0.03131924197077751,0.7468301653862,0.0008942870772443712,0.011670071631669998,0.12437117099761963,0.9921667575836182,0.0006423416780307889,-0.012,-0.03,0.746,0.001383770608975631,0.006918853044878155,0.12315558419883116,0.9923622910671736,0.044,-0.002,0.03,-0.38,1.004,8.861,0.01496434211730957,-0.028051063418388367,0.7000001668930054,0.003,0.069,0.031,0.622919050888838,0.7641718165865568,0.7269398031586175,0.7732051575494011,3.483,True,True,False,False,False,CF_2
1776883623.9205072,-0.3694058954715729,-0.09097053110599518,0.7449661493301392,0.015544738620519638,-0.005653690081089735,0.16010145843029022,-0.9869619607925415,0.0007378612062893808,-0.369,-0.088,0.743,-0.009686394262829417,0.004151311826926893,-0.15774984942322193,0.9874228705996492,-0.004,0.019,0.012,-0.602,-0.719,10.468,-0.360792875289917,-0.052221834659576416,0.7000020146369934,-0.011,0.102,-0.13,0.7623407339589532,0.6869916838330663,0.7729304951552606,0.6857862211032273,3.494,True,True,False,False,False,CF_3
1776883623.9361129,-0.013387995772063732,-0.031504638493061066,0.7468125820159912,0.0009469061624258757,0.010555815882980824,0.12439185380935669,0.9921765923500061,0.0006436184630729258,-0.012,-0.03,0.746,0.001383770608975631,0.006918853044878155,0.12315558419883116,0.9923622910671736,0.043,-0.004,-0.044,0.785,-0.913,11.385,0.01496434211730957,-0.028051063418388367,0.7000001668930054,-0.031,0.032,0.039,0.6647745479514763,0.7879453727016098,0.7234607461661707,0.7715266651407645,3.483,True,True,False,False,False,CF_2
1776883623.9366121,-0.36939918994903564,-0.09120427072048187,0.7454268932342529,0.014708302915096283,-0.005976877175271511,0.16135302186012268,-0.9867691397666931,0.0007163170375861228,-0.369,-0.088,0.743,-0.009686394262829417,0.004151311826926893,-0.15774984942322193,0.9874228705996492,-0.004,0.019,0.012,-0.602,-0.719,10.468,-0.360792875289917,-0.052221834659576416,0.7000020146369934,-0.011,0.102,-0.13,0.7623407339589532,0.6869916838330663,0.7729304951552606,0.6857862211032273,3.494,True,True,False,False,False,CF_3
1776883623.9520514,-0.013171323575079441,-0.03168876841664314,0.7467716336250305,0.0007663235883228481,0.009877429343760014,0.12459484487771988,0.9921582341194153,0.0006426374893635511,-0.012,-0.03,0.746,0.001383770608975631,0.006918853044878155,0.12315558419883116,0.9923622910671736,0.043,-0.004,-0.044,0.785,-0.913,11.385,0.01496434211730957,-0.028051063418388367,0.7000001668930054,-0.031,0.032,0.039,0.6647745479514763,0.7879453727016098,0.7234607461661707,0.7715266651407645,3.483,True,True,False,False,False,CF_2
1776883623.9520514,-0.3693521022796631,-0.09143202006816864,0.7458873391151428,0.014958257786929607,-0.005802716128528118,0.16253477334976196,-0.9865723848342896,0.0007120188092812896,-0.369,-0.089,0.744,-0.011070164871805049,0.004151311826926893,-0.1605173906411732,0.9869622005738495,0.002,0.022,0.009,0.219,1.597,9.088,-0.360792875289917,-0.052221834659576416,0.7000020146369934,0.022,-0.055,-0.14,0.7623407339589532,0.6869916838330663,0.7729304951552606,0.6857862211032273,3.494,True,True,False,False,False,CF_3
1776883623.96752,-0.012950392439961433,-0.03190868720412254,0.7467538714408875,0.00026200967840850353,0.009504619985818863,0.12525197863578796,0.9920794367790222,0.0006392174400389194,-0.012,-0.031,0.746,0.001383770608975631,0.006918853044878155,0.12453935480780678,0.9921895805517715,0.043,-0.004,-0.044,0.785,-0.913,11.385,0.01496434211730957,-0.028051063418388367,0.7000001668930054,-0.031,0.032,0.039,0.6647745479514763,0.7879453727016098,0.7234607461661707,0.7715266651407645,3.483,True,True,False,False,False,CF_2
1776883623.96752,-0.36928778886795044,-0.09160394966602325,0.7463644742965698,0.015012158080935478,-0.00636351527646184,0.16348694264888763,-0.9864108562469482,0.000726297206711024,-0.369,-0.089,0.744,-0.011070164871805049,0.004151311826926893,-0.1605173906411732,0.9869622005738495,0.002,0.022,0.009,0.219,1.597,9.088,-0.360792875289917,-0.052221834659576416,0.7000020146369934,0.022,-0.055,-0.14,0.7388876173037309,0.7050583657587549,0.7846646829938201,0.6782330052643626,3.494,True,True,False,False,False,CF_3
1776883623.9829698,-0.012765970081090927,-0.03211027383804321,0.7467420101165771,-0.00034262254484929144,0.009045442566275597,0.1257772147655487,0.9920172691345215,0.000629945716354996,-0.012,-0.031,0.746,0.001383770608975631,0.006918853044878155,0.12453935480780678,0.9921895805517715,0.043,-0.004,-0.044,0.785,-0.913,11.385,0.01496434211730957,-0.028051063418388367,0.7000001668930054,-0.031,0.032,0.039,0.6647745479514763,0.7879453727016098,0.7234607461661707,0.7715266651407645,3.483,True,True,False,False,False,CF_2
1776883623.9829698,-0.3691559433937073,-0.09180156886577606,0.7468252778053284,0.015017238445580006,-0.006385293323546648,0.16498850286006927,-0.9861605167388916,0.0007249444606713951,-0.369,-0.089,0.744,-0.011070164871805049,0.004151311826926893,-0.1605173906411732,0.9869622005738495,0.002,0.022,0.009,0.219,1.597,9.088,-0.360792875289917,-0.052221834659576416,0.7000020146369934,0.022,-0.055,-0.14,0.7388876173037309,0.7050583657587549,0.7846646829938201,0.6782330052643626,3.494,True,True,False,False,False,CF_3
1776883623.9981055,-0.012684392742812634,-0.032236259430646896,0.7467251420021057,-0.0002767305704765022,0.008921206928789616,0.1260882169008255,0.9919788837432861,0.0006221084040589631,-0.012,-0.031,0.746,0.001383770608975631,0.006918853044878155,0.12453935480780678,0.9921895805517715,0.046,-0.005,0.018,-1.054,-0.414,9.03,0.01496434211730957,-0.028051063418388367,0.7000001668930054,-0.022,0.062,0.042,0.6407873655298696,0.7685816739147021,0.7216601815823606,0.768688487067979,3.483,True,True,False,False,False,CF_2
1776883623.9985998,-0.36905530095100403,-0.09189745783805847,0.7470834851264954,0.015089652501046658,-0.0060447705909609795,0.1654205024242401,-0.9860891103744507,0.0007136256899684668,-0.369,-0.09,0.745,-0.011070164871805049,0.005535082435902524,-0.1646687024681001,0.9862712774584947,0.002,0.022,0.009,0.219,1.597,9.088,-0.360792875289917,-0.052221834659576416,0.7000020146369934,0.022,-0.055,-0.14,0.7388876173037309,0.7050583657587549,0.7846646829938201,0.6782330052643626,3.494,True,True,False,False,False,CF_3
1776883624.0136805,-0.012521686032414436,-0.03243551030755043,0.7466787099838257,-0.0007170851458795369,0.008422056213021278,0.12647835910320282,0.9919334053993225,0.0006163498037494719,-0.011,-0.031,0.747,0.001383770608975631,0.005535082435902524,0.12453935480780678,0.9921982650384875,0.046,-0.005,0.018,-1.054,-0.414,9.03,0.01496434211730957,-0.028051063418388367,0.7000001668930054,-0.022,0.062,0.042,0.6407873655298696,0.7685816739147021,0.7216601815823606,0.768688487067979,3.483,True,True,False,False,False,CF_2
1776883624.0136805,-0.3689250648021698,-0.09200374782085419,0.7476160526275635,0.016154376789927483,-0.005918140523135662,0.16680507361888885,-0.98583984375,0.0007447937969118357,-0.369,-0.09,0.745,-0.011070164871805049,0.005535082435902524,-0.1646687024681001,0.9862712774584947,0.002,0.022,0.009,0.219,1.597,9.088,-0.360792875289917,-0.052221834659576416,0.7000020146369934,0.022,-0.055,-0.14,0.7388876173037309,0.7050583657587549,0.7846646829938201,0.6782330052643626,3.494,True,True,False,False,False,CF_3
1776883624.0295334,-0.012392617762088776,-0.032642070204019547,0.7466155886650085,-0.0008753024158068001,0.00802735984325409,0.12678450345993042,0.991897463798523,0.0006218273192644119,-0.011,-0.031,0.747,0.001383770608975631,0.005535082435902524,0.12453935480780678,0.9921982650384875,0.046,-0.005,0.018,-1.054,-0.414,9.03,0.01496434211730957,-0.028051063418388367,0.7000001668930054,-0.022,0.062,0.042,0.6407873655298696,0.7685816739147021,0.7216601815823606,0.768688487067979,3.483,True,True,False,False,False,CF_2
1776883624.0295334,-0.36877503991127014,-0.09210885316133499,0.7480816841125488,0.01679265685379505,-0.005345006473362446,0.1681450605392456,-0.9856047630310059,0.0007486938266083598,-0.369,-0.09,0.745,-0.011070164871805049,0.005535082435902524,-0.1646687024681001,0.9862712774584947,0.01,0.026,-0.015,0.53,-0.898,9.894,-0.360792875289917,-0.052221834659576416,0.7000020146369934,-0.039,0.055,-0.153,0.7590753032730602,0.6958419165331502,0.7917143511100938,0.6743114366369116,3.494,True,True,False,False,False,CF_3
1776883624.0449276,-0.012291711755096912,-0.032863374799489975,0.7465077638626099,-0.001107175019569695,0.007356500253081322,0.1271686553955078,0.9918532371520996,0.0006336367805488408,-0.011,-0.031,0.747,0.001383770608975631,0.005535082435902524,0.12453935480780678,0.9921982650384875,0.046,-0.005,0.018,-1.054,-0.414,9.03,0.01496434211730957,-0.028051063418388367,0.7000001668930054,-0.022,0.062,0.042,0.6407873655298696,0.7685816739147021,0.7216601815823606,0.768688487067979,3.483,True,True,False,False,False,CF_2
1776883624.0449276,-0.36853504180908203,-0.09224303811788559,0.7486140131950378,0.01687362603843212,-0.0039046972524374723,0.1693301647901535,-0.9854072332382202,0.0007324149482883513,-0.368,-0.09,0.746,-0.011070164871805049,0.004151311826926893,-0.16743624368605134,0.9858120116736923,0.01,0.026,-0.015,0.53,-0.898,9.894,-0.360792875289917,-0.052221834659576416,0.7000020146369934,-0.039,0.055,-0.153,0.7590753032730602,0.6958419165331502,0.7917143511100938,0.6743114366369116,3.494,True,True,False,False,False,CF_3
1776883624.0604048,-0.012179398909211159,-0.033146534115076065,0.746362566947937,-0.0008863507537171245,0.006616410333663225,0.12768039107322693,0.9917929172515869,0.0006272748578339815,-0.01,-0.032,0.746,0.0,0.002767541217951262,0.1259231254167824,0.9920361420839849,0.044,-0.006,-0.024,-0.045,0.337,11.188,0.01496434211730957,-0.028051063418388367,0.7000001668930054,-0.044,0.048,0.056,0.6407873655298696,0.7685816739147021,0.7216601815823606,0.768688487067979,3.483,True,True,False,False,False,CF_2
1776883624.0604048,-0.3683081269264221,-0.09232226014137268,0.7491459250450134,0.01671639271080494,-0.0032516666688024998,0.1704762727022171,-0.9852145910263062,0.0007268420304171741,-0.368,-0.09,0.746,-0.011070164871805049,0.004151311826926893,-0.16743624368605134,0.9858120116736923,0.01,0.026,-0.015,0.53,-0.898,9.894,-0.360792875289917,-0.052221834659576416,0.7000020146369934,-0.039,0.055,-0.153,0.7590753032730602,0.6958419165331502,0.7917143511100938,0.6743114366369116,3.494,True,True,False,False,False,CF_3
1776883624.0755825,-0.012106426060199738,-0.03343042731285095,0.7461733818054199,-0.0007679200498387218,0.0063580358400940895,0.12799012660980225,0.9917547702789307,0.0006277798675000668,-0.01,-0.032,0.746,0.0,0.002767541217951262,0.1259231254167824,0.9920361420839849,0.044,-0.006,-0.024,-0.045,0.337,11.188,0.01496434211730957,-0.028051063418388367,0.7000001668930054,-0.044,0.048,0.056,0.6722056916151675,0.7838101777676051,0.7142748149843595,0.762600137331197,3.483,True,True,False,False,False,CF_2
1776883624.0760794,-0.3680136501789093,-0.0924166813492775,0.7497581839561462,0.017407389357686043,-0.002826990559697151,0.17162787914276123,-0.9850040078163147,0.000722187221981585,-0.368,-0.09,0.746,-0.011070164871805049,0.004151311826926893,-0.16743624368605134,0.9858120116736923,0.01,0.026,-0.015,0.53,-0.898,9.894,-0.360792875289917,-0.052221834659576416,0.7000020146369934,-0.039,0.055,-0.153,0.7590753032730602,0.6958419165331502,0.7917143511100938,0.6743114366369116,3.494,True,True,False,False,False,CF_3
1776883624.0915108,-0.012045941315591335,-0.033713534474372864,0.7460044026374817,-0.0008426673011854291,0.006278251763433218,0.12827421724796295,0.9917184710502625,0.0006251324666664004,-0.01,-0.032,0.746,0.0,0.002767541217951262,0.1259231254167824,0.9920361420839849,0.044,-0.006,-0.024,-0.045,0.337,11.188,0.01496434211730957,-0.028051063418388367,0.7000001668930054,-0.044,0.048,0.056,0.6722056916151675,0.7838101777676051,0.7142748149843595,0.762600137331197,3.483,True,True,False,False,False,CF_2
1776883624.0915108,-0.3677309453487396,-0.0923975482583046,0.7504643201828003,0.01705891266465187,-0.0018111757235601544,0.17277836799621582,-0.9848113656044006,0.0007341022719629109,-0.368,-0.09,0.746,-0.011070164871805049,0.004151311826926893,-0.16743624368605134,0.9858120116736923,0.018,0.03,0.028,0.005,2.268,8.839,-0.360792875289917,-0.052221834659576416,0.7000020146369934,0.004,0.118,-0.139,0.7590753032730602,0.6958419165331502,0.7917143511100938,0.6743114366369116,3.494,True,True,False,False,False,CF_3
1776883624.1070967,-0.01202374417334795,-0.033966489136219025,0.7458253502845764,-0.0010020154295489192,0.006211183965206146,0.12870211899280548,0.9916633367538452,0.0006289103766903281,-0.01,-0.033,0.746,-0.0,0.002767541217951262,0.12730689602575807,0.9918595137114398,0.044,-0.006,-0.024,-0.045,0.337,11.188,0.01496434211730957,-0.028051063418388367,0.7000001668930054,-0.044,0.048,0.056,0.6722056916151675,0.7838101777676051,0.7142748149843595,0.762600137331197,3.483,True,True,False,False,False,CF_2
1776883624.1070967,-0.3674756586551666,-0.09236903488636017,0.7510993480682373,0.017563968896865845,-0.0011470896424725652,0.17421703040599823,-0.9845499992370605,0.0007343126926571131,-0.368,-0.091,0.748,-0.012453935480780678,0.001383770608975631,-0.17158755551297825,0.9850891814769985,0.018,0.03,0.028,0.005,2.268,8.839,-0.360792875289917,-0.052221834659576416,0.7000020146369934,0.004,0.118,-0.139,0.7523460746166171,0.6898756389715419,0.7764095521477073,0.6671091783016708,3.494,True,True,False,False,False,CF_3
1776883624.1223526,-0.012043141759932041,-0.0340987853705883,0.7457402348518372,-0.0009251579758711159,0.0061112637631595135,0.12901347875595093,0.9916236400604248,0.0006283426191657782,-0.01,-0.033,0.746,-0.0,0.002767541217951262,0.12730689602575807,0.9918595137114398,0.044,-0.006,-0.024,-0.045,0.337,11.188,0.01496434211730957,-0.028051063418388367,0.7000001668930054,-0.044,0.048,0.056,0.6722056916151675,0.7838101777676051,0.7142748149843595,0.762600137331197,3.483,True,True,False,False,False,CF_2
1776883624.1223526,-0.3673236668109894,-0.09231998771429062,0.7514074444770813,0.01786213368177414,-0.0009761195397004485,0.174796000123024,-0.9844421744346619,0.0007393439300358295,-0.368,-0.091,0.748,-0.012453935480780678,0.001383770608975631,-0.17158755551297825,0.9850891814769985,0.018,0.03,0.028,0.005,2.268,8.839,-0.360792875289917,-0.052221834659576416,0.7000020146369934,0.004,0.118,-0.139,0.7523460746166171,0.6898756389715419,0.7764095521477073,0.6671091783016708,3.494,True,True,False,False,False,CF_3
1776883624.1377268,-0.012082296423614025,-0.03437945246696472,0.7455207109451294,-0.0009582184138707817,0.005720770917832851,0.12949497997760773,0.9915632009506226,0.0006385036394931376,-0.01,-0.033,0.746,-0.0,0.002767541217951262,0.12730689602575807,0.9918595137114398,0.035,-0.009,-0.033,0.638,0.718,7.501,0.01496434211730957,-0.028051063418388367,0.7000001668930054,0.0,0.019,0.051,0.6557259479667353,0.7765621423666743,0.7342488746471351,0.7722133211261158,3.483,True,True,False,False,False,CF_2
1776883624.1377268,-0.367014080286026,-0.09226183593273163,0.7520596385002136,0.01742442511022091,-0.0007544891559518874,0.17615459859371185,-0.9842079877853394,0.0007366425707004964,-0.368,-0.091,0.748,-0.012453935480780678,0.001383770608975631,-0.17158755551297825,0.9850891814769985,0.018,0.03,0.028,0.005,2.268,8.839,-0.360792875289917,-0.052221834659576416,0.7000020146369934,0.004,0.118,-0.139,0.7523460746166171,0.6898756389715419,0.7764095521477073,0.6671091783016708,3.494,True,True,False,False,False,CF_3
1776883624.153322,-0.012127963826060295,-0.03467591851949692,0.7453038096427917,-0.0008601323934271932,0.006015554536134005,0.12989795207977295,0.9915088415145874,0.0006335184443742037,-0.01,-0.033,0.746,-0.0,0.002767541217951262,0.12730689602575807,0.9918595137114398,0.035,-0.009,-0.033,0.638,0.718,7.501,0.01496434211730957,-0.028051063418388367,0.7000001668930054,0.0,0.019,0.051,0.6557259479667353,0.7765621423666743,0.7342488746471351,0.7722133211261158,3.483,True,True,False,False,False,CF_2
1776883624.153322,-0.36663714051246643,-0.09218975156545639,0.7527046203613281,0.01752384565770626,-0.0003167428949382156,0.1774008870124817,-0.9839826226234436,0.0007373326225206256,-0.367,-0.09,0.75,-0.012453935480780678,-0.0,-0.1743550967309295,0.9846040827332521,0.018,0.03,0.028,0.005,2.268,8.839,-0.360792875289917,-0.052221834659576416,0.7000020146369934,0.004,0.118,-0.139,0.7523460746166171,0.6898756389715419,0.7764095521477073,0.6671091783016708,3.494,True,True,False,False,False,CF_3
1776883624.1688206,-0.012218574061989784,-0.03500261530280113,0.7450551390647888,-0.0010889658005908132,0.006224555894732475,0.13052457571029663,0.9914249777793884,0.0006327161099761724,-0.01,-0.034,0.744,-0.0,0.002767541217951262,0.1286906666347337,0.9916809229972687,0.035,-0.009,-0.033,0.638,0.718,7.501,0.01496434211730957,-0.028051063418388367,0.7000001668930054,0.0,0.019,0.051,0.6557259479667353,0.7765621423666743,0.7342488746471351,0.7722133211261158,3.483,True,True,False,False,False,CF_2
1776883624.1688206,-0.3662894368171692,-0.09204067289829254,0.7533037662506104,0.01746022328734398,-0.00014699426537845284,0.17880281805992126,-0.9837300777435303,0.0007194028585217893,-0.367,-0.09,0.75,-0.012453935480780678,-0.0,-0.1743550967309295,0.9846040827332521,0.022,0.039,0.018,0.446,-1.578,10.076,-0.360792875289917,-0.052221834659576416,0.7000020146369934,-0.018,0.131,-0.141,0.753353170061799,0.6892500190737774,0.7688715953307393,0.6745098039215687,3.494,True,True,False,False,False,CF_3
1776883624.184344,-0.012337986379861832,-0.03535173833370209,0.7448043823242188,-0.0007421683985739946,0.006185498088598251,0.13101117312908173,0.9913613796234131,0.0006260358495637774,-0.01,-0.034,0.744,-0.0,0.002767541217951262,0.1286906666347337,0.9916809229972687,0.035,-0.009,-0.033,0.638,0.718,7.501,0.01496434211730957,-0.028051063418388367,0.7000001668930054,0.0,0.019,0.051,0.6557259479667353,0.7765621423666743,0.7342488746471351,0.7722133211261158,3.483,True,True,False,False,False,CF_2
1776883624.184344,-0.365945041179657,-0.09189163893461227,0.7539231777191162,0.017665091902017593,0.00026444043032824993,0.17955155670642853,-0.9835898876190186,0.0007257622783072293,-0.367,-0.09,0.75,-0.012453935480780678,-0.0,-0.1743550967309295,0.9846040827332521,0.022,0.039,0.018,0.446,-1.578,10.076,-0.360792875289917,-0.052221834659576416,0.7000020146369934,-0.018,0.131,-0.141,0.753353170061799,0.6892500190737774,0.7688715953307393,0.6745098039215687,3.494,True,True,False,False,False,CF_3
1776883624.199852,-0.012395291589200497,-0.03553454950451851,0.7447370290756226,-0.00021866611496079713,0.006119985599070787,0.13133496046066284,0.9913192391395569,0.000619490456301719,-0.01,-0.034,0.744,-0.0,0.002767541217951262,0.1286906666347337,0.9916809229972687,0.027,-0.01,0.002,0.454,0.063,11.348,0.01496434211730957,-0.028051063418388367,0.7000001668930054,0.015,0.021,0.049,0.6557259479667353,0.7765621423666743,0.7342488746471351,0.7722133211261158,3.483,True,True,False,False,False,CF_2
1776883624.199852,-0.3658100366592407,-0.09175000339746475,0.754246711730957,0.01758035458624363,0.0004947454435750842,0.18013803660869598,-0.9834842085838318,0.0007489500567317009,-0.366,-0.09,0.752,-0.012453935480780678,-0.001383770608975631,-0.1785064085578564,0.9838589567482312,0.022,0.039,0.018,0.446,-1.578,10.076,-0.360792875289917,-0.052221834659576416,0.7000020146369934,-0.018,0.131,-0.141,0.753353170061799,0.6892500190737774,0.7688715953307393,0.6745098039215687,3.494,True,True,False,False,False,CF_3
1776883624.2156472,-0.01255177054554224,-0.03584432229399681,0.7445271015167236,-1.9688441170728765e-05,0.006111579015851021,0.13154993951320648,0.9912906885147095,0.0006313248304650187,-0.01,-0.034,0.744,0.0,0.002767541217951262,0.13007443724370932,0.9915003688810908,0.027,-0.01,0.002,0.454,0.063,11.348,0.01496434211730957,-0.028051063418388367,0.7000001668930054,0.015,0.021,0.049,0.6508735790035859,0.7542992294193942,0.7294880598153658,0.7837186236362249,3.483,True,True,False,False,False,CF_2
1776883624.2156472,-0.36546841263771057,-0.0915704146027565,0.7549024224281311,0.017740771174430847,0.00042930999188683927,0.18152903020381927,-0.9832255244255066,0.0007304434548132122,-0.366,-0.09,0.752,-0.012453935480780678,-0.001383770608975631,-0.1785064085578564,0.9838589567482312,0.022,0.039,0.018,0.446,-1.578,10.076,-0.360792875289917,-0.052221834659576416,0.7000020146369934,-0.018,0.131,-0.141,0.753353170061799,0.6892500190737774,0.7688715953307393,0.6745098039215687,3.494,True,True,False,False,False,CF_3
1776883624.2319388,-0.012735522352159023,-0.036165766417980194,0.7443110942840576,-0.0003530116518959403,0.006062778178602457,0.13171283900737762,0.9912693500518799,0.0006316383951343596,-0.01,-0.034,0.744,0.0,0.002767541217951262,0.13007443724370932,0.9915003688810908,0.027,-0.01,0.002,0.454,0.063,11.348,0.01496434211730957,-0.028051063418388367,0.7000001668930054,0.015,0.021,0.049,0.6508735790035859,0.7542992294193942,0.7294880598153658,0.7837186236362249,3.483,True,True,False,False,False,CF_2
1776883624.2319388,-0.3651818335056305,-0.09130912274122238,0.7554861903190613,0.017448320984840393,0.0006412535440176725,0.18254171311855316,-0.9830431342124939,0.0007494593737646937,-0.366,-0.09,0.752,-0.012453935480780678,-0.001383770608975631,-0.1785064085578564,0.9838589567482312,0.023,0.046,0.036,0.186,-0.28,9.742,-0.360792875289917,-0.052221834659576416,0.7000020146369934,0.012,0.083,-0.147,0.7409170672159915,0.6942854962996872,0.765972381170367,0.6641184100099183,3.494,True,True,False,False,False,CF_3
1776883624.2470644,-0.012949715368449688,-0.036480747163295746,0.7441067695617676,-0.0006145648658275604,0.006450721062719822,0.1320095956325531,0.9912273287773132,0.0006365329027175903,-0.01,-0.034,0.744,0.0,0.002767541217951262,0.13007443724370932,0.9915003688810908,0.027,-0.01,0.002,0.454,0.063,11.348,0.01496434211730957,-0.028051063418388367,0.7000001668930054,0.015,0.021,0.049,0.6508735790035859,0.7542992294193942,0.7294880598153658,0.7837186236362249,3.483,True,True,False,False,False,CF_2
1776883624.2475717,-0.36479267477989197,-0.0910704955458641,0.7561001181602478,0.017187437042593956,0.0010835970751941204,0.1838105171918869,-0.9828108549118042,0.0007511700969189405,-0.365,-0.09,0.755,-0.012453935480780678,-0.001383770608975631,-0.18265772038478328,0.9830967103259864,0.023,0.046,0.036,0.186,-0.28,9.742,-0.360792875289917,-0.052221834659576416,0.7000020146369934,0.012,0.083,-0.147,0.7409170672159915,0.6942854962996872,0.765972381170367,0.6641184100099183,3.494,True,True,False,False,False,CF_3
1776883624.2626166,-0.013189145363867283,-0.0368124358355999,0.7439126968383789,-0.0010297993430867791,0.006747444625943899,0.13239000737667084,0.9911742806434631,0.000645978085231036,-0.01,-0.034,0.744,0.0,0.002767541217951262,0.13007443724370932,0.9915003688810908,0.027,-0.01,0.002,0.454,0.063,11.348,0.01496434211730957,-0.028051063418388367,0.7000001668930054,0.015,0.021,0.049,0.6508735790035859,0.7542992294193942,0.7294880598153658,0.7837186236362249,3.483,True,True,False,False,False,CF_2
1776883624.2626166,-0.3644216060638428,-0.09073630720376968,0.7567070722579956,0.01597200334072113,0.0011154782259836793,0.18534594774246216,-0.9825429916381836,0.0007453826256096363,-0.365,-0.09,0.755,-0.012453935480780678,-0.001383770608975631,-0.18265772038478328,0.9830967103259864,0.023,0.046,0.036,0.186,-0.28,9.742,-0.360792875289917,-0.052221834659576416,0.7000020146369934,0.012,0.083,-0.147,0.7409170672159915,0.6942854962996872,0.765972381170367,0.6641184100099183,3.494,True,True,False,False,False,CF_3
1776883624.278624,-0.013411561027169228,-0.03722972422838211,0.7437238693237305,-0.0015436711255460978,0.0073183514177799225,0.13315658271312714,0.9910668134689331,0.0006300987442955375,-0.011,-0.035,0.745,-0.0,0.002767541217951262,0.13145820785268494,0.991317850290091,0.022,-0.011,0.021,0.276,-0.262,8.9,0.01496434211730957,-0.028051063418388367,0.7000001668930054,0.01,-0.085,0.045,0.6465094987411307,0.7699549858854048,0.7215228503852903,0.7525597009231708,3.483,True,True,False,False,False,CF_2
1776883624.278624,-0.3640971779823303,-0.09045606106519699,0.7572121620178223,0.01579427905380726,0.0018209433183073997,0.18621398508548737,-0.9823806285858154,0.0007309265783987939,-0.365,-0.09,0.755,-0.012453935480780678,-0.001383770608975631,-0.18265772038478328,0.9830967103259864,0.023,0.046,0.036,0.186,-0.28,9.742,-0.360792875289917,-0.052221834659576416,0.7000020146369934,0.012,0.083,-0.147,0.7409170672159915,0.6942854962996872,0.765972381170367,0.6641184100099183,3.494,True,True,False,False,False,CF_3
1776883624.2941334,-0.013671408407390118,-0.03758096694946289,0.7434973120689392,-0.0011163727613165975,0.008564263582229614,0.13353198766708374,0.9910069108009338,0.0006456839037127793,-0.011,-0.035,0.745,-0.0,0.002767541217951262,0.13145820785268494,0.991317850290091,0.022,-0.011,0.021,0.276,-0.262,8.9,0.01496434211730957,-0.028051063418388367,0.7000001668930054,0.01,-0.085,0.045,0.6465094987411307,0.7699549858854048,0.7215228503852903,0.7525597009231708,3.483,True,True,False,False,False,CF_2
1776883624.2941334,-0.3638235330581665,-0.09011492878198624,0.7577335834503174,0.015253560617566109,0.001969239441677928,0.18789641559123993,-0.9820684194564819,0.0007267121109180152,-0.364,-0.089,0.757,-0.011070164871805049,-0.002767541217951262,-0.18542526160273456,0.9825921150329242,0.023,0.046,0.036,0.186,-0.28,9.742,-0.360792875289917,-0.052221834659576416,0.7000020146369934,0.012,0.083,-0.147,0.7409170672159915,0.6942854962996872,0.765972381170367,0.6641184100099183,3.494,True,True,False,False,False,CF_3
1776883624.3091505,-0.013945667073130608,-0.037974026054143906,0.7431904077529907,-0.0009810997871682048,0.009957140311598778,0.1340038925409317,0.9909303188323975,0.0006316501530818641,-0.011,-0.036,0.744,-0.0,0.004151311826926893,0.13284197846166057,0.9911285362497174,0.022,-0.011,0.021,0.276,-0.262,8.9,0.01496434211730957,-0.028051063418388367,0.7000001668930054,0.01,-0.085,0.045,0.6465094987411307,0.7699549858854048,0.7215228503852903,0.7525597009231708,3.483,True,True,False,False,False,CF_2
1776883624.3091505,-0.36347267031669617,-0.08972320705652237,0.758236825466156,0.014092068187892437,0.0022096564061939716,0.18907269835472107,-0.9818595051765442,0.0007400053436867893,-0.364,-0.089,0.757,-0.011070164871805049,-0.002767541217951262,-0.18542526160273456,0.9825921150329242,0.022,0.051,0.029,-0.144,1.799,8.959,-0.360792875289917,-0.052221834659576416,0.7000020146369934,0.098,0.028,-0.148,0.7470054169527733,0.7004348821240558,0.7518883039597162,0.6634012359807736,3.494,True,True,False,False,False,CF_3
1776883624.3246813,-0.014221036806702614,-0.038350675255060196,0.7428093552589417,-0.0008576788241043687,0.011062869802117348,0.13427793979644775,0.990881621837616,0.0006256994092836976,-0.011,-0.036,0.744,-0.0,0.004151311826926893,0.13284197846166057,0.9911285362497174,0.022,-0.011,0.021,0.276,-0.262,8.9,0.01496434211730957,-0.028051063418388367,0.7000001668930054,0.01,-0.085,0.045,0.6465094987411307,0.7699549858854048,0.7215228503852903,0.7525597009231708,3.483,True,True,False,False,False,CF_2
1776883624.3251944,-0.36318230628967285,-0.08936712890863419,0.7586637139320374,0.013238878920674324,0.003402440110221505,0.1902123987674713,-0.9816478490829468,0.0007353695691563189,-0.364,-0.089,0.757,-0.011070164871805049,-0.002767541217951262,-0.18542526160273456,0.9825921150329242,0.022,0.051,0.029,-0.144,1.799,8.959,-0.360792875289917,-0.052221834659576416,0.7000020146369934,0.098,0.028,-0.148,0.7470054169527733,0.7004348821240558,0.7518883039597162,0.6634012359807736,3.494,True,True,False,False,False,CF_3
1776883624.3398879,-0.014350772835314274,-0.038528721779584885,0.7426453232765198,-0.0010280860587954521,0.011367293074727058,0.13435906171798706,0.9908670783042908,0.0006280034431256354,-0.011,-0.036,0.744,-0.0,0.004151311826926893,0.13284197846166057,0.9911285362497174,0.02,-0.012,-0.013,0.062,-0.642,12.128,0.01496434211730957,-0.028051063418388367,0.7000001668930054,-0.016,-0.149,0.038,0.6465094987411307,0.7699549858854048,0.7215228503852903,0.7525597009231708,3.483,True,True,False,False,False,CF_2
1776883624.3398879,-0.363013356924057,-0.08919329941272736,0.7588533163070679,0.012850998900830746,0.003225322812795639,0.19080811738967896,-0.9815379977226257,0.00073336559580639,-0.363,-0.088,0.758,-0.008302623653853786,-0.004151311826926893,-0.18957657342966144,0.9818220591620694,0.022,0.051,0.029,-0.144,1.799,8.959,-0.360792875289917,-0.052221834659576416,0.7000020146369934,0.098,0.028,-0.148,0.7470054169527733,0.7004348821240558,0.7518883039597162,0.6634012359807736,3.494,True,True,False,False,False,CF_3
1776883624.3556619,-0.014624780043959618,-0.03886887803673744,0.7423639893531799,-0.0011894096387550235,0.01269837561994791,0.13477319478988647,0.9907944202423096,0.0006382352439686656,-0.013,-0.038,0.742,0.0,0.008302623653853786,0.1342257490706362,0.9909159978156015,0.02,-0.012,-0.013,0.062,-0.642,12.128,0.01496434211730957,-0.028051063418388367,0.7000001668930054,-0.016,-0.149,0.038,0.6937819485770962,0.7869840543221179,0.7011978332188906,0.7510337987335012,3.483,True,True,False,False,False,CF_2
1776883624.3556619,-0.3627464771270752,-0.08882497251033783,0.7592157125473022,0.012152857147157192,0.003251343499869108,0.19186440110206604,-0.9813408255577087,0.0007200983236543834,-0.363,-0.088,0.758,-0.008302623653853786,-0.004151311826926893,-0.18957657342966144,0.9818220591620694,0.022,0.051,0.029,-0.144,1.799,8.959,-0.360792875289917,-0.052221834659576416,0.7000020146369934,0.098,0.028,-0.148,0.7470054169527733,0.7004348821240558,0.7518883039597162,0.6634012359807736,3.494,True,True,False,False,False,CF_3
1776883624.370625,-0.014880536124110222,-0.03922649845480919,0.7420487403869629,-0.0019208259182050824,0.013204584829509258,0.1350414901971817,0.9907501339912415,0.0006321741384454072,-0.013,-0.038,0.742,0.0,0.008302623653853786,0.1342257490706362,0.9909159978156015,0.02,-0.012,-0.013,0.062,-0.642,12.128,0.01496434211730957,-0.028051063418388367,0.7000001668930054,-0.016,-0.149,0.038,0.6937819485770962,0.7869840543221179,0.7011978332188906,0.7510337987335012,3.483,True,True,False,False,False,CF_2
1776883624.370625,-0.3625011146068573,-0.08846469223499298,0.7595145106315613,0.011351820081472397,0.003464620327576995,0.19268958270549774,-0.9811880588531494,0.0007227573660202324,-0.363,-0.088,0.758,-0.008302623653853786,-0.004151311826926893,-0.18957657342966144,0.9818220591620694,0.02,0.055,0.005,0.783,0.164,8.804,-0.360792875289917,-0.052221834659576416,0.7000020146369934,0.097,-0.113,-0.139,0.7470054169527733,0.7004348821240558,0.7518883039597162,0.6634012359807736,3.494,True,True,False,False,False,CF_3
1776883624.3865247,-0.015120686031877995,-0.03957166150212288,0.7417874336242676,-0.0025440119206905365,0.013690666295588017,0.1351327747106552,0.9907296299934387,0.000624322216026485,-0.013,-0.038,0.742,0.0,0.008302623653853786,0.1342257490706362,0.9909159978156015,0.02,-0.012,-0.013,0.062,-0.642,12.128,0.01496434211730957,-0.028051063418388367,0.7000001668930054,-0.016,-0.149,0.038,0.6937819485770962,0.7869840543221179,0.7011978332188906,0.7510337987335012,3.483,True,True,False,False,False,CF_2
1776883624.3865247,-0.3622555732727051,-0.08807284384965897,0.7598327398300171,0.010492323897778988,0.00361926038749516,0.1942208707332611,-0.9808950424194336,0.0007182178669609129,-0.362,-0.087,0.759,-0.005535082435902524,-0.004151311826926893,-0.19372788525658835,0.981030904684737,0.02,0.055,0.005,0.783,0.164,8.804,-0.360792875289917,-0.052221834659576416,0.7000020146369934,0.097,-0.113,-0.139,0.7332112611581597,0.7089341573205158,0.7653315022507057,0.6688181887541008,3.494,True,True,False,False,False,CF_3
1776883624.4019601,-0.015398841351270676,-0.03990190848708153,0.7414700388908386,-0.0027912682853639126,0.014548211358487606,0.13491292297840118,0.9907467365264893,0.0006334757781587541,-0.014,-0.039,0.742,-0.001383770608975631,0.011070164871805049,0.1342257490706362,0.990887977984918,0.02,-0.012,-0.013,0.062,-0.642,12.128,0.01496434211730957,-0.028051063418388367,0.7000001668930054,-0.016,-0.149,0.038,0.6937819485770962,0.7869840543221179,0.7011978332188906,0.7510337987335012,3.483,True,True,False,False,False,CF_2
1776883624.4019601,-0.36202698945999146,-0.08764803409576416,0.7600453495979309,0.009654983878135681,0.0035703217145055532,0.1956837773323059,-0.9806130528450012,0.0007273646770045161,-0.362,-0.087,0.759,-0.005535082435902524,-0.004151311826926893,-0.19372788525658835,0.981030904684737,0.02,0.055,0.005,0.783,0.164,8.804,-0.360792875289917,-0.052221834659576416,0.7000020146369934,0.097,-0.113,-0.139,0.7332112611581597,0.7089341573205158,0.7653315022507057,0.6688181887541008,3.494,True,True,False,False,False,CF_3
1776883624.417145,-0.015640538185834885,-0.04022998362779617,0.7411259412765503,-0.0034270910546183586,0.0149416234344244,0.13522475957870483,0.9906964302062988,0.0006356434896588326,-0.014,-0.039,0.742,-0.001383770608975631,0.011070164871805049,0.1342257490706362,0.990887977984918,0.021,-0.013,0.053,-0.818,0.36,10.974,0.01496434211730957,-0.028051063418388367,0.7000001668930054,-0.107,-0.087,0.026,0.6559548332951858,0.7811551079575799,0.7083848325322347,0.7332265201800564,3.483,True,True,False,False,False,CF_2
1776883624.417145,-0.3618066608905792,-0.08733020722866058,0.7602351903915405,0.008970565162599087,0.0038719712756574154,0.1965397745370865,-0.9804471731185913,0.0007306963088922203,-0.362,-0.087,0.759,-0.005535082435902524,-0.004151311826926893,-0.19372788525658835,0.981030904684737,0.02,0.055,0.005,0.783,0.164,8.804,-0.360792875289917,-0.052221834659576416,0.7000020146369934,0.097,-0.113,-0.139,0.7332112611581597,0.7089341573205158,0.7653315022507057,0.6688181887541008,3.494,True,True,False,False,False,CF_3
1776883624.432804,-0.01582668535411358,-0.040574364364147186,0.7407746315002441,-0.00393650820478797,0.014922006987035275,0.13543163239955902,0.9906665682792664,0.0006356192170642316,-0.014,-0.039,0.742,-0.001383770608975631,0.011070164871805049,0.1342257490706362,0.990887977984918,0.021,-0.013,0.053,-0.818,0.36,10.974,0.01496434211730957,-0.028051063418388367,0.7000001668930054,-0.107,-0.087,0.026,0.6559548332951858,0.7811551079575799,0.7083848325322347,0.7332265201800564,3.483,True,True,False,False,False,CF_2
1776883624.432804,-0.36163660883903503,-0.08696408569812775,0.7604196667671204,0.008014330640435219,0.003994707949459553,0.19780223071575165,-0.9802011251449585,0.0007452525314874947,-0.362,-0.087,0.759,-0.005535082435902524,-0.004151311826926893,-0.19372788525658835,0.981030904684737,0.02,0.055,0.005,0.783,0.164,8.804,-0.360792875289917,-0.052221834659576416,0.7000020146369934,0.097,-0.113,-0.139,0.7332112611581597,0.7089341573205158,0.7653315022507057,0.6688181887541008,3.494,True,True,False,False,False,CF_3
1776883624.448652,-0.016015369445085526,-0.04090260714292526,0.7403549551963806,-0.00429515028372407,0.015776267275214195,0.13576900959014893,0.9906055927276611,0.0006251708837226033,-0.014,-0.039,0.742,-0.001383770608975631,0.011070164871805049,0.1342257490706362,0.990887977984918,0.021,-0.013,0.053,-0.818,0.36,10.974,0.01496434211730957,-0.028051063418388367,0.7000001668930054,-0.107,-0.087,0.026,0.6559548332951858,0.7811551079575799,0.7083848325322347,0.7332265201800564,3.483,True,True,False,False,False,CF_2
1776883624.448652,-0.3614639341831207,-0.08663496375083923,0.7605364322662354,0.007794298697263002,0.0032798522152006626,0.19876113533973694,-0.9800115823745728,0.0007383663905784488,-0.361,-0.085,0.759,-0.004151311826926893,-0.004151311826926893,-0.1964954264745396,0.9804871649311989,0.015,0.057,0.011,-0.829,1.831,10.175,-0.360792875289917,-0.052221834659576416,0.7000020146369934,0.076,-0.013,-0.144,0.733852140077821,0.7035172045471886,0.7570763714045929,0.6771038376440071,3.494,True,True,False,False,False,CF_3
1776883624.4633,-0.016085265204310417,-0.04102663695812225,0.7401401996612549,-0.004745264071971178,0.015902340412139893,0.13578736782073975,0.9905990362167358,0.0006283270195126534,-0.014,-0.04,0.743,-0.002767541217951262,0.011070164871805049,0.13560951967961185,0.9906966489988663,0.021,-0.013,0.053,-0.818,0.36,10.974,0.01496434211730957,-0.028051063418388367,0.7000001668930054,-0.107,-0.087,0.026,0.6559548332951858,0.7811551079575799,0.7083848325322347,0.7332265201800564,3.483,True,True,False,False,False,CF_2
1776883624.4633,-0.3614058494567871,-0.08646032214164734,0.7605870962142944,0.007770081516355276,0.0030466513708233833,0.19971178472042084,-0.9798191785812378,0.0007403549971058965,-0.361,-0.085,0.759,-0.004151311826926893,-0.004151311826926893,-0.1964954264745396,0.9804871649311989,0.015,0.057,0.011,-0.829,1.831,10.175,-0.360792875289917,-0.052221834659576416,0.7000020146369934,0.076,-0.013,-0.144,0.733852140077821,0.7035172045471886,0.7570763714045929,0.6771038376440071,3.494,True,True,False,False,False,CF_3
1776883624.4786532,-0.016264595091342926,-0.04128318279981613,0.7396565079689026,-0.005211193580180407,0.016156107187271118,0.1358902007341385,0.9905785322189331,0.0006285841227509081,-0.014,-0.04,0.743,-0.002767541217951262,0.011070164871805049,0.13560951967961185,0.9906966489988663,0.021,-0.013,0.053,-0.818,0.36,10.974,0.01496434211730957,-0.028051063418388367,0.7000001668930054,-0.107,-0.087,0.026,0.6559548332951858,0.7811551079575799,0.7083848325322347,0.7332265201800564,3.483,True,True,False,False,False,CF_2
1776883624.4791582,-0.3612520694732666,-0.0861663892865181,0.7606676816940308,0.00779513455927372,0.002799527021124959,0.20063696801662445,-0.979630708694458,0.0007460122578777373,-0.361,-0.085,0.759,-0.004151311826926893,-0.004151311826926893,-0.1964954264745396,0.9804871649311989,0.015,0.057,0.011,-0.829,1.831,10.175,-0.360792875289917,-0.052221834659576416,0.7000020146369934,0.076,-0.013,-0.144,0.733852140077821,0.7035172045471886,0.7570763714045929,0.6771038376440071,3.494,True,True,False,False,False,CF_3
1776883624.493809,-0.016395803540945053,-0.04150157421827316,0.7391912341117859,-0.005456825252622366,0.016576386988162994,0.13582229614257812,0.9905795454978943,0.0006263460963964462,-0.014,-0.04,0.743,-0.002767541217951262,0.011070164871805049,0.13560951967961185,0.9906966489988663,0.024,-0.01,-0.031,1.136,-0.111,8.433,0.01496434211730957,-0.028051063418388367,0.7000001668930054,-0.019,-0.035,0.007,0.661722743572137,0.7697871366445411,0.7258716716258488,0.7660486762798505,3.483,True,True,False,False,False,CF_2
1776883624.493809,-0.36119136214256287,-0.08587571233510971,0.7606722116470337,0.007463292218744755,0.002643934218212962,0.20161347091197968,-0.9794331789016724,0.0007323941099457443,-0.361,-0.085,0.76,-0.004151311826926893,-0.004151311826926893,-0.20064673830146648,0.9796460685519103,0.015,0.057,0.011,-0.829,1.831,10.175,-0.360792875289917,-0.052221834659576416,0.7000020146369934,0.076,-0.013,-0.144,0.733852140077821,0.7035172045471886,0.7570763714045929,0.6771038376440071,3.494,True,True,False,False,False,CF_3
1776883624.5095506,-0.016501817852258682,-0.04168099910020828,0.738751232624054,-0.005663675721734762,0.01620618812739849,0.13578367233276367,0.9905897974967957,0.0006337589002214372,-0.015,-0.041,0.739,-0.004151311826926893,0.012453935480780678,0.13560951967961185,0.9906753879416916,0.024,-0.01,-0.031,1.136,-0.111,8.433,0.01496434211730957,-0.028051063418388367,0.7000001668930054,-0.019,-0.035,0.007,0.661722743572137,0.7697871366445411,0.7258716716258488,0.7660486762798505,3.483,True,True,False,False,False,CF_2
1776883624.5095506,-0.36108118295669556,-0.08561338484287262,0.7607084512710571,0.007670717313885689,0.0021534590050578117,0.2024332731962204,-0.9792637228965759,0.0007343677571043372,-0.361,-0.085,0.76,-0.004151311826926893,-0.004151311826926893,-0.20064673830146648,0.9796460685519103,0.011,0.054,-0.012,0.341,-3.565,10.452,-0.360792875289917,-0.052221834659576416,0.7000020146369934,-0.079,0.042,-0.127,0.733852140077821,0.7035172045471886,0.7570763714045929,0.6771038376440071,3.494,True,True,False,False,False,CF_3
1776883624.5249226,-0.016561759635806084,-0.04185003414750099,0.7382252812385559,-0.005803596694022417,0.015927573665976524,0.1357703059911728,0.9905953407287598,0.0006218251655809581,-0.015,-0.041,0.739,-0.004151311826926893,0.012453935480780678,0.13560951967961185,0.9906753879416916,0.024,-0.01,-0.031,1.136,-0.111,8.433,0.01496434211730957,-0.028051063418388367,0.7000001668930054,-0.019,-0.035,0.007,0.661722743572137,0.7697871366445411,0.7258716716258488,0.7660486762798505,3.483,True,True,False,False,False,CF_2
1776883624.5249226,-0.3610086143016815,-0.0853940024971962,0.7607324719429016,0.007699539884924889,0.0018481867155060172,0.20327705144882202,-0.9790892601013184,0.0007187376031652093,-0.361,-0.085,0.76,-0.004151311826926893,-0.004151311826926893,-0.20064673830146648,0.9796460685519103,0.011,0.054,-0.012,0.341,-3.565,10.452,-0.360792875289917,-0.052221834659576416,0.7000020146369934,-0.079,0.042,-0.127,0.7535973144121462,0.7035324635690853,0.7400625619897765,0.6896009765774014,3.494,True,True,False,False,False,CF_3
1776883624.5403688,-0.016603628173470497,-0.042011622339487076,0.7377107739448547,-0.006056191399693489,0.015916733071208,0.1356671303510666,0.9906080961227417,0.0006122024497017264,-0.015,-0.041,0.739,-0.004151311826926893,0.012453935480780678,0.13560951967961185,0.9906753879416916,0.024,-0.01,-0.031,1.136,-0.111,8.433,0.01496434211730957,-0.028051063418388367,0.7000001668930054,-0.019,-0.035,0.007,0.661722743572137,0.7697871366445411,0.7258716716258488,0.7660486762798505,3.483,True,True,False,False,False,CF_2
1776883624.5403688,-0.3609524965286255,-0.08516500890254974,0.7607179284095764,0.00747982133179903,0.0009884635219350457,0.20428501069545746,-0.978882372379303,0.0007224633591249585,-0.36,-0.083,0.76,-0.002767541217951262,-0.002767541217951262,-0.20341427951941776,0.9790849362127936,0.011,0.054,-0.012,0.341,-3.565,10.452,-0.360792875289917,-0.052221834659576416,0.7000020146369934,-0.079,0.042,-0.127,0.7535973144121462,0.7035324635690853,0.7400625619897765,0.6896009765774014,3.494,True,True,False,False,False,CF_3
1776883624.5556655,-0.016619239002466202,-0.04204465076327324,0.7374546527862549,-0.006249979138374329,0.015732822939753532,0.13542324304580688,0.9906432032585144,0.000616426405031234,-0.014,-0.041,0.738,-0.005535082435902524,0.012453935480780678,0.13560951967961185,0.9906686229641742,0.033,-0.001,0.021,-0.409,-0.45,11.606,0.01496434211730957,-0.028051063418388367,0.7000001668930054,0.006,0.035,-0.022,0.661722743572137,0.7697871366445411,0.7258716716258488,0.7660486762798505,3.483,True,True,False,False,False,CF_2
1776883624.5556655,-0.360905259847641,-0.0850546807050705,0.7607020735740662,0.007588313892483711,0.0008249316597357392,0.2048979252576828,-0.9787536263465881,0.0007203230052255094,-0.36,-0.083,0.76,-0.002767541217951262,-0.002767541217951262,-0.20341427951941776,0.9790849362127936,0.011,0.054,-0.012,0.341,-3.565,10.452,-0.360792875289917,-0.052221834659576416,0.7000020146369934,-0.079,0.042,-0.127,0.7535973144121462,0.7035324635690853,0.7400625619897765,0.6896009765774014,3.494,True,True,False,False,False,CF_3
1776883624.571593,-0.016675004735589027,-0.042110148817300797,0.7369293570518494,-0.005789605434983969,0.015585647895932198,0.13532055914402008,0.9906624555587769,0.0006264082621783018,-0.014,-0.041,0.738,-0.005535082435902524,0.012453935480780678,0.13560951967961185,0.9906686229641742,0.033,-0.001,0.021,-0.409,-0.45,11.606,0.01496434211730957,-0.028051063418388367,0.7000001668930054,0.006,0.035,-0.022,0.6621957732509346,0.7660334172579538,0.7147631036850538,0.766277561608301,3.483,True,True,False,False,False,CF_2
1776883624.571593,-0.360837459564209,-0.08485004305839539,0.760589599609375,0.0072891185991466045,0.0004471134743653238,0.2056078314781189,-0.9786072969436646,0.0007286249892786145,-0.36,-0.083,0.76,-0.002767541217951262,-0.002767541217951262,-0.20341427951941776,0.9790849362127936,0.011,0.054,-0.012,0.341,-3.565,10.452,-0.360792875289917,-0.052221834659576416,0.7000020146369934,-0.079,0.042,-0.127,0.7535973144121462,0.7035324635690853,0.7400625619897765,0.6896009765774014,3.494,True,True,False,False,False,CF_3
1776883624.5870845,-0.016713950783014297,-0.042119719088077545,0.7364296317100525,-0.006102623417973518,0.014561597257852554,0.13510629534721375,0.9907053112983704,0.0006325353751890361,-0.014,-0.041,0.738,-0.005535082435902524,0.012453935480780678,0.13560951967961185,0.9906686229641742,0.033,-0.001,0.021,-0.409,-0.45,11.606,0.01496434211730957,-0.028051063418388367,0.7000001668930054,0.006,0.035,-0.022,0.6621957732509346,0.7660334172579538,0.7147631036850538,0.766277561608301,3.483,True,True,False,False,False,CF_2
1776883624.5870845,-0.36078080534935,-0.08470366895198822,0.760470986366272,0.007642671465873718,2.6586612875689752e-05,0.20653754472732544,-0.9784088730812073,0.0007371465908363461,-0.36,-0.083,0.76,-0.002767541217951262,-0.002767541217951262,-0.20341427951941776,0.9790849362127936,0.007,0.047,0.004,-0.545,1.352,8.429,-0.360792875289917,-0.052221834659576416,0.7000020146369934,-0.001,-0.092,-0.094,0.7260395208667124,0.7022812237735561,0.7532463569085222,0.6795605401693752,3.494,True,True,False,False,False,CF_3
1776883624.6032014,-0.016734277829527855,-0.04211435839533806,0.7359728813171387,-0.006347252521663904,0.014512009918689728,0.1348135769367218,0.9907444715499878,0.000631017901469022,-0.015,-0.041,0.737,-0.005535082435902524,0.011070164871805049,0.1342257490706362,0.9908734846581401,0.033,-0.001,0.021,-0.409,-0.45,11.606,0.01496434211730957,-0.028051063418388367,0.7000001668930054,0.006,0.035,-0.022,0.6621957732509346,0.7660334172579538,0.7147631036850538,0.766277561608301,3.483,True,True,False,False,False,CF_2
1776883624.6032014,-0.3607865571975708,-0.08455093950033188,0.760300874710083,0.0073616704903542995,-0.0001336480345344171,0.2073046714067459,-0.9782487750053406,0.0007455314043909311,-0.36,-0.083,0.76,-0.004151311826926893,-0.001383770608975631,-0.20618182073736901,0.9785039134241829,0.007,0.047,0.004,-0.545,1.352,8.429,-0.360792875289917,-0.052221834659576416,0.7000020146369934,-0.001,-0.092,-0.094,0.7260395208667124,0.7022812237735561,0.7532463569085222,0.6795605401693752,3.499,True,True,False,False,False,CF_3
1776883624.6178935,-0.016722388565540314,-0.04205436259508133,0.7354830503463745,-0.0069139874540269375,0.014117145910859108,0.134569451212883,0.9907795190811157,0.0006303908303380013,-0.015,-0.041,0.737,-0.005535082435902524,0.011070164871805049,0.1342257490706362,0.9908734846581401,0.036,0.005,-0.022,-0.136,0.241,8.882,0.01496434211730957,-0.028051063418388367,0.7000001668930054,0.004,0.057,-0.044,0.6621957732509346,0.7660334172579538,0.7147631036850538,0.766277561608301,3.483,True,True,False,False,False,CF_2
1776883624.6178935,-0.3607076406478882,-0.08445941656827927,0.760137140750885,0.007537306752055883,-0.0002447269798722118,0.20784546434879303,-0.9781326651573181,0.000746255274862051,-0.36,-0.083,0.76,-0.004151311826926893,-0.001383770608975631,-0.20618182073736901,0.9785039134241829,0.007,0.047,0.004,-0.545,1.352,8.429,-0.360792875289917,-0.052221834659576416,0.7000020146369934,-0.001,-0.092,-0.094,0.7260395208667124,0.7022812237735561,0.7532463569085222,0.6795605401693752,3.499,True,True,False,False,False,CF_3
1776883624.6332061,-0.016666458919644356,-0.04199653118848801,0.734967827796936,-0.007243385538458824,0.013684039935469627,0.13433487713336945,0.9908150434494019,0.0006251761224120855,-0.015,-0.041,0.737,-0.005535082435902524,0.011070164871805049,0.1342257490706362,0.9908734846581401,0.036,0.005,-0.022,-0.136,0.241,8.882,0.01496434211730957,-0.028051063418388367,0.7000001668930054,0.004,0.057,-0.044,0.6496070801861601,0.7729152361333639,0.7378347447928588,0.776379034103914,3.473,True,True,False,False,False,CF_2
1776883624.6332061,-0.36072781682014465,-0.08436504006385803,0.7598716020584106,0.008625518530607224,-2.573448909970466e-06,0.20861555635929108,-0.9779596924781799,0.0007524140528403223,-0.36,-0.083,0.76,-0.004151311826926893,-0.001383770608975631,-0.20618182073736901,0.9785039134241829,0.007,0.047,0.004,-0.545,1.352,8.429,-0.360792875289917,-0.052221834659576416,0.7000020146369934,-0.001,-0.092,-0.094,0.7260395208667124,0.7022812237735561,0.7532463569085222,0.6795605401693752,3.499,True,True,False,False,False,CF_3
1776883624.6486511,-0.01666092500090599,-0.041871100664138794,0.7344368100166321,-0.005853478796780109,0.012900354340672493,0.13369058072566986,0.9909218549728394,0.0006274275365285575,-0.015,-0.041,0.737,-0.005535082435902524,0.011070164871805049,0.1342257490706362,0.9908734846581401,0.036,0.005,-0.022,-0.136,0.241,8.882,0.01496434211730957,-0.028051063418388367,0.7000001668930054,0.004,0.057,-0.044,0.6496070801861601,0.7729152361333639,0.7378347447928588,0.776379034103914,3.473,True,True,False,False,False,CF_2
1776883624.6486511,-0.3607144355773926,-0.08427753299474716,0.7595803141593933,0.00908516813069582,0.00031253640190698206,0.20916615426540375,-0.9778379201889038,0.0007507747504860163,-0.36,-0.083,0.76,-0.004151311826926893,-0.001383770608975631,-0.20756559134634464,0.9782113151451785,0.006,0.043,0.005,-0.706,2.026,10.321,-0.360792875289917,-0.052221834659576416,0.7000020146369934,-0.012,0.037,-0.066,0.7246204318303197,0.7008010986495765,0.7575036240177004,0.6861829556725414,3.499,True,True,False,False,False,CF_3
1776883624.6641643,-0.016636649146676064,-0.04182279109954834,0.7341508269309998,-0.004958803299814463,0.012246224097907543,0.13339878618717194,0.9909743666648865,0.0006297110230661929,-0.015,-0.041,0.735,-0.005535082435902524,0.009686394262829417,0.1342257490706362,0.990887977984918,0.036,0.005,-0.022,-0.136,0.241,8.882,0.01496434211730957,-0.028051063418388367,0.7000001668930054,0.004,0.057,-0.044,0.6496070801861601,0.7729152361333639,0.7378347447928588,0.776379034103914,3.473,True,True,False,False,False,CF_2
1776883624.664666,-0.3606899380683899,-0.08428524434566498,0.7594318389892578,0.009524346329271793,0.0005420080851763487,0.2094556838274002,-0.9777716398239136,0.0007345963385887444,-0.36,-0.083,0.76,-0.004151311826926893,-0.001383770608975631,-0.20756559134634464,0.9782113151451785,0.006,0.043,0.005,-0.706,2.026,10.321,-0.360792875289917,-0.052221834659576416,0.7000020146369934,-0.012,0.037,-0.066,0.7246204318303197,0.7008010986495765,0.7575036240177004,0.6861829556725414,3.499,True,True,False,False,False,CF_3
1776883624.6793864,-0.016606859862804413,-0.0416942797601223,0.7336120009422302,-0.004641007166355848,0.011802389286458492,0.13299676775932312,0.9910353422164917,0.0006272671744227409,-0.015,-0.041,0.735,-0.005535082435902524,0.009686394262829417,0.1342257490706362,0.990887977984918,0.036,0.005,-0.022,-0.136,0.241,8.882,0.01496434211730957,-0.028051063418388367,0.7000001668930054,0.004,0.057,-0.044,0.6496070801861601,0.7729152361333639,0.7378347447928588,0.776379034103914,3.473,True,True,False,False,False,CF_2
1776883624.6793864,-0.36067304015159607,-0.08419416099786758,0.7590701580047607,0.009658141061663628,0.0003869535285048187,0.20973028242588043,-0.97771155834198,0.0007347881910391152,-0.36,-0.083,0.76,-0.004151311826926893,-0.001383770608975631,-0.20756559134634464,0.9782113151451785,0.006,0.043,0.005,-0.706,2.026,10.321,-0.360792875289917,-0.052221834659576416,0.7000020146369934,-0.012,0.037,-0.066,0.7246204318303197,0.7008010986495765,0.7575036240177004,0.6861829556725414,3.499,True,True,False,False,False,CF_3
1776883624.6954353,-0.0165803674608469,-0.04149575158953667,0.7330623865127563,-0.004610738717019558,0.011873072013258934,0.1324547976255417,0.9911072254180908,0.0006292639882303774,-0.015,-0.041,0.735,-0.005535082435902524,0.009686394262829417,0.1342257490706362,0.990887977984918,0.037,0.013,-0.01,-0.331,-0.188,11.562,0.01496434211730957,-0.028051063418388367,0.7000001668930054,0.071,0.113,-0.074,0.6539406424048219,0.7889066910811017,0.7344319829098955,0.7704432745860991,3.473,True,True,False,False,False,CF_2
1776883624.6954353,-0.3606228232383728,-0.08416939526796341,0.758711576461792,0.010268405079841614,0.00028348201885819435,0.2101818323135376,-0.9776084423065186,0.000724894693121314,-0.36,-0.082,0.759,-0.005535082435902524,-0.001383770608975631,-0.20894936195532027,0.977909818019941,0.006,0.043,0.005,-0.706,2.026,10.321,-0.360792875289917,-0.052221834659576416,0.7000020146369934,-0.012,0.037,-0.066,0.7246204318303197,0.7008010986495765,0.7575036240177004,0.6861829556725414,3.499,True,True,False,False,False,CF_3
1776883624.7106886,-0.016544515267014503,-0.04129398614168167,0.7325764894485474,-0.004707538057118654,0.011471514590084553,0.13193249702453613,0.9911811947822571,0.0006309964810498059,-0.014,-0.041,0.733,-0.004151311826926893,0.008302623653853786,0.13145820785268494,0.9912782518741841,0.037,0.013,-0.01,-0.331,-0.188,11.562,0.01496434211730957,-0.028051063418388367,0.7000001668930054,0.071,0.113,-0.074,0.6539406424048219,0.7889066910811017,0.7344319829098955,0.7704432745860991,3.473,True,True,False,False,False,CF_2
1776883624.7106886,-0.3606450855731964,-0.08412376046180725,0.7583290934562683,0.01031563337892294,-4.831344267586246e-05,0.21071374416351318,-0.977493405342102,0.0007391979452222586,-0.36,-0.082,0.759,-0.005535082435902524,-0.001383770608975631,-0.20894936195532027,0.977909818019941,0.006,0.043,0.005,-0.706,2.026,10.321,-0.360792875289917,-0.052221834659576416,0.7000020146369934,-0.012,0.037,-0.066,0.7246204318303197,0.7008010986495765,0.7575036240177004,0.6861829556725414,3.499,True,True,False,False,False,CF_3
1776883624.726099,-0.016518114134669304,-0.04106281325221062,0.7321294546127319,-0.0036276881583034992,0.010284332558512688,0.13108287751674652,0.9913114905357361,0.0006321348482742906,-0.014,-0.041,0.733,-0.004151311826926893,0.008302623653853786,0.13145820785268494,0.9912782518741841,0.037,0.013,-0.01,-0.331,-0.188,11.562,0.01496434211730957,-0.028051063418388367,0.7000001668930054,0.071,0.113,-0.074,0.6539406424048219,0.7889066910811017,0.7344319829098955,0.7704432745860991,3.473,True,True,False,False,False,CF_2
1776883624.726099,-0.3605864942073822,-0.0841362401843071,0.7578880786895752,0.010166390798985958,-1.1480823559395503e-05,0.21055428683757782,-0.9775293469429016,0.0007449135882779956,-0.36,-0.082,0.759,-0.005535082435902524,-0.001383770608975631,-0.20894936195532027,0.977909818019941,0.005,0.039,-0.008,1.456,-0.272,9.154,-0.360792875289917,-0.052221834659576416,0.7000020146369934,-0.073,-0.033,-0.037,0.7325398641947051,0.7033035782406348,0.754711223010605,0.6880903334096284,3.499,True,True,False,False,False,CF_3
1776883624.741443,-0.01651713065803051,-0.0408320277929306,0.7317166328430176,-0.0026438331697136164,0.009001298807561398,0.12997868657112122,0.9914724230766296,0.0006347416783683002,-0.014,-0.041,0.733,-0.004151311826926893,0.008302623653853786,0.13145820785268494,0.9912782518741841,0.037,0.013,-0.01,-0.331,-0.188,11.562,0.01496434211730957,-0.028051063418388367,0.7000001668930054,0.071,0.113,-0.074,0.6539406424048219,0.7889066910811017,0.7344319829098955,0.7704432745860991,3.473,True,True,False,False,False,CF_2
1776883624.741443,-0.36056777834892273,-0.08412259072065353,0.7574096918106079,0.010361853055655956,0.00012149411486461759,0.21107685565948486,-0.9774145483970642,0.0007338536670431495,-0.36,-0.082,0.758,-0.006918853044878155,-0.001383770608975631,-0.21033313256429592,0.9776043105454965,0.005,0.039,-0.008,1.456,-0.272,9.154,-0.360792875289917,-0.052221834659576416,0.7000020146369934,-0.073,-0.033,-0.037,0.7325398641947051,0.7033035782406348,0.754711223010605,0.6880903334096284,3.499,True,True,False,False,False,CF_3
1776883624.7567585,-0.01650811731815338,-0.04062425345182419,0.731349766254425,-0.0026017676573246717,0.008682459592819214,0.1294136494398117,0.9915493726730347,0.0006245848489925265,-0.015,-0.04,0.732,-0.002767541217951262,0.005535082435902524,0.13007443724370932,0.9914849188735888,0.037,0.013,-0.01,-0.331,-0.188,11.562,0.01496434211730957,-0.028051063418388367,0.7000001668930054,0.071,0.113,-0.074,0.6539406424048219,0.7889066910811017,0.7344319829098955,0.7704432745860991,3.473,True,True,False,False,False,CF_2
1776883624.7567585,-0.3605748116970062,-0.08411930501461029,0.7568591833114624,0.010277947410941124,-0.0005720157059840858,0.2114245891571045,-0.9773401618003845,0.0007307515479624271,-0.36,-0.082,0.758,-0.006918853044878155,-0.001383770608975631,-0.21033313256429592,0.9776043105454965,0.005,0.039,-0.008,1.456,-0.272,9.154,-0.360792875289917,-0.052221834659576416,0.7000020146369934,-0.073,-0.033,-0.037,0.7325398641947051,0.7033035782406348,0.754711223010605,0.6880903334096284,3.499,True,True,False,False,False,CF_3
1776883624.7724292,-0.01650983840227127,-0.04051182419061661,0.7311776280403137,-0.0032468673307448626,0.008619897998869419,0.12908311188220978,0.9915910363197327,0.0006184335215948522,-0.015,-0.04,0.732,-0.002767541217951262,0.005535082435902524,0.13007443724370932,0.9914849188735888,0.037,0.018,-0.057,1.245,0.517,8.384,0.01496434211730957,-0.028051063418388367,0.7000001668930054,-0.041,0.042,-0.087,0.6678416113527122,0.7969024185549707,0.7333943694209201,0.7798886091401541,3.473,True,True,False,False,False,CF_2
1776883624.7724292,-0.3605213761329651,-0.08414077758789062,0.7565833330154419,0.01083102636039257,-0.0004844606446567923,0.21161769330501556,-0.9772924780845642,0.000733841850887984,-0.36,-0.082,0.758,-0.006918853044878155,-0.001383770608975631,-0.21033313256429592,0.9776043105454965,0.005,0.039,-0.008,1.456,-0.272,9.154,-0.360792875289917,-0.052221834659576416,0.7000020146369934,-0.073,-0.033,-0.037,0.7325398641947051,0.7033035782406348,0.754711223010605,0.6880903334096284,3.499,True,True,False,False,False,CF_3
1776883624.78743,-0.016563210636377335,-0.040265437215566635,0.7308101058006287,-0.0035025663673877716,0.008770037442445755,0.1283181756734848,0.9916881918907166,0.0006126647931523621,-0.015,-0.04,0.732,-0.002767541217951262,0.005535082435902524,0.13007443724370932,0.9914849188735888,0.037,0.018,-0.057,1.245,0.517,8.384,0.01496434211730957,-0.028051063418388367,0.7000001668930054,-0.041,0.042,-0.087,0.6678416113527122,0.7969024185549707,0.7333943694209201,0.7798886091401541,3.473,True,True,False,False,False,CF_2
1776883624.78743,-0.3605067729949951,-0.08409617841243744,0.7559998035430908,0.011640389449894428,-0.0006226083496585488,0.21177168190479279,-0.9772496223449707,0.0007329864893108606,-0.36,-0.082,0.758,-0.006918853044878155,-0.001383770608975631,-0.21033313256429592,0.9776043105454965,0.005,0.039,-0.033,-0.649,1.435,9.921,-0.360792875289917,-0.052221834659576416,0.7000020146369934,-0.029,-0.08,0.004,0.7325398641947051,0.7033035782406348,0.754711223010605,0.6880903334096284,3.499,True,True,False,False,False,CF_3
1776883624.8027093,-0.01664109341800213,-0.03998671472072601,0.7304249405860901,-0.0028353394009172916,0.008960860781371593,0.12738832831382751,0.9918084144592285,0.0006340114632621408,-0.014,-0.04,0.73,-0.002767541217951262,0.005535082435902524,0.12730689602575807,0.9918440692983558,0.037,0.018,-0.057,1.245,0.517,8.384,0.01496434211730957,-0.028051063418388367,0.7000001668930054,-0.041,0.042,-0.087,0.6678416113527122,0.7969024185549707,0.7333943694209201,0.7798886091401541,3.473,True,True,False,False,False,CF_2
1776883624.8027093,-0.36043792963027954,-0.08407855778932571,0.7554667592048645,0.012554459273815155,-0.0006860771682113409,0.21139095723628998,-0.9773207306861877,0.0007376224384643137,-0.36,-0.082,0.756,-0.006918853044878155,-0.0,-0.21033313256429592,0.9776052898886307,0.005,0.039,-0.033,-0.649,1.435,9.921,-0.360792875289917,-0.052221834659576416,0.7000020146369934,-0.029,-0.08,0.004,0.718120088502327,0.7077286945906768,0.7806668192568856,0.6924696726939803,3.499,True,True,False,False,False,CF_3
1776883624.8184304,-0.016730647534132004,-0.03972209617495537,0.7301755547523499,-0.0020964015275239944,0.008428138680756092,0.1267964094877243,0.9918908476829529,0.000642228580545634,-0.014,-0.04,0.73,-0.002767541217951262,0.005535082435902524,0.12730689602575807,0.9918440692983558,0.037,0.018,-0.057,1.245,0.517,8.384,0.01496434211730957,-0.028051063418388367,0.7000001668930054,-0.041,0.042,-0.087,0.6678416113527122,0.7969024185549707,0.7333943694209201,0.7798886091401541,3.473,True,True,False,False,False,CF_2
